subjectID,repetition,period,choiceset,lencs,mincs,P1cs,Q1cs,mediancs,meancs,Q3cs,P9cs,maxcs
101,1,1,"{'POSAT': 7.0, 'NUEES': 5.0, 'NAGEE': 3.5, 'JET': 10, 'DINAT': 3.5, 'SORES': 3.0, 'SORTS': 3.0, 'POSTA': 7.0, 'VOUES': 4.5}",9,3,3,3.5,4.5,5.166666666666667,3.5,7.6,10
101,1,2,{'NUAGE': 3.5},1,3.5,3.5,3.5,3.5,3.5,3.5,3.5,3.5
101,1,3,"{'NUEES': 5.0, 'NAGEE': 3.5, 'EJET': 11.0, 'SORES': 3.0, 'NUAGE': 3.5, 'QUE': 10, 'JETE': 11.0, 'VOUES': 4.5}",8,3,3.35,3.5,4.75,6.4375,3.5,11,11
101,1,4,"{'DINAS': 3.5, 'NAGEURS': 4.6, 'NAGES': 3.5, 'POSAS': 7.0, 'JETS': 11.0, 'FOINS': 4.5, 'LABOS': 3.4}",7,3.4,3.46,3.5,4.5,5.357142857142857,3.5,8.600000000000001,11
101,1,5,{},0,0,0,0,0,NA,0,0,0
101,1,6,{'NUAGE': 3.5},1,3.5,3.5,3.5,3.5,3.5,3.5,3.5,3.5
101,1,7,"{'NUAGE': 3.5, 'DOINA': 3.5, 'NOUES': 5.0}",3,3.5,3.5000000000000004,3.5,3.5,4,3.5,4.7,5
101,1,8,"{'BOUT': 6, 'POSTAT': 7.0, 'BUTO': 6, 'JETTES': 12.5, 'BOT': 5, 'DOINA': 3.5, 'BUT': 5, 'NOUES': 5.0, 'NUAGE': 3.5, 'SORTS': 3.0, 'TUB': 5, 'POSTA': 7.0, 'OUT': 3}",13,3,3.1,3.5,5,5.5,3.5,7,12.5
101,1,9,"{'NOUES': 5.0, 'NUAGE': 3.5, 'DUB': 6, 'DUO': 4, 'DOINA': 3.5, 'OUD': 4}",6,3.5,3.5,3.625,4,4.333333333333333,3.625,5.5,6
101,1,10,"{'BAUD': 7, 'NAGEA': 3.5, 'BAU': 5, 'DAUW': 14, 'DUO': 4, 'JETA': 11.0, 'WAD': 13, 'BOUDA': 8, 'OBA': 5, 'DOUA': 5, 'APOSTA': 8.0, 'VOUAS': 4.5, 'NOUES': 5.0, 'NUAGE': 3.5, 'OUD': 4, 'BAOU': 6, 'BOA': 5, 'DAB': 6, 'DAO': 4, 'DOINA': 3.5, 'ADO': 4, 'DAW': 13, 'JETAS': 12.0, 'DUB': 6}",24,3.5,3.65,4,5,6.666666666666667,4,12.7,14
101,2,1,"{'FAIT': 7, 'FIAT': 7, 'FIT': 6, 'AIT': 3, 'FIA': 6, 'FAIM': 8, 'TIF': 6, 'MIT': 4, 'MITA': 5, 'AMI': 4, 'AIDEE': 6.0, 'MAT': 4, 'TAF': 6, 'FAT': 6, 'MATIF': 9, 'POILA': 7.0, 'MAI': 4, 'MORAL': 6.0, 'MATI': 5}",19,3,4,4.5,6,5.7368421052631575,4.5,7.199999999999999,9
101,2,2,"{'AIT': 3, 'TOI': 3, 'TOM': 4, 'TIF': 6, 'TOF': 6, 'MIT': 4, 'MITA': 5, 'FIAT': 7, 'AIDEE': 6.0, 'MOTIF': 9, 'OMIT': 5, 'MATIF': 9, 'FAT': 6, 'TAF': 6, 'POILA': 7.0, 'TAO': 3, 'IOTA': 4, 'FAIT': 7, 'AMI': 4, 'FIT': 6, 'IODEE': 6.0, 'FIA': 6, 'FAIM': 8, 'FOI': 6, 'OIT': 3, 'MAT': 4, 'MOAI': 5, 'OTA': 3, 'MOT': 4, 'MOI': 4, 'OTAI': 4, 'MORAL': 6.0, 'MAI': 4, 'TOMA': 5, 'MOA': 4, 'TOMAI': 6, 'MAO': 4, 'MATI': 5}",38,3,3,4,5,5.184210526315789,4,7,9
101,2,3,"{'AIDEE': 6.0, 'POILA': 7.0}",2,6,6.1000000000000005,6.25,6.5,6.5,6.25,6.8999999999999995,7
101,2,4,"{'AIDEE': 6.0, 'TENDU': 6.0}",2,6,6,6,6,6,6,6,6
101,2,5,"{'AIDEE': 6.0, 'ADA': 4, 'TENDU': 6.0}",3,4,4.4,5,6,5.333333333333333,5,6,6
101,2,6,"{'AIDA': 5.0, 'POILAI': 8.0, 'POILAIT': 9.0}",3,5,5.6,6.5,8,7.333333333333333,6.5,8.8,9
101,2,7,{'IDEEL': 6.0},1,6,6,6,6,6,6,6,6
101,2,8,"{'IDEEL': 6.0, 'ORALE': 5.0, 'LIEUE': 5.0, 'EMOTIFS': 11.0, 'EMOTIF': 10.0, 'TENUE': 5.0}",6,5,5,5,5.5,7,5,10.5,11
101,2,9,"{'LAMPAT': 9.0, 'LAMPAIT': 10.0, 'IDEEL': 6.0, 'LAMPA': 8.0}",4,6,6.6,7.5,8.5,8.25,7.5,9.7,10
101,2,10,"{'LAMAI': 6.0, 'AIDA': 5.0, 'IDEEL': 6.0, 'LAMPAIT': 10.0}",4,5,5.300000000000001,5.75,6,6.75,5.75,8.8,10
102,1,1,"{'NAGEA': 6.0, 'BAT': 5, 'FLAT': 7, 'JETA': 6.0, 'FAT': 6, 'POSAT': 4.0, 'TAF': 6, 'VOUAS': 8.0, 'DINAT': 3.5, 'FLA': 6, 'SORTS': 3.0, 'BAL': 5, 'POSTA': 4.0}",13,3,3.6,4,6,5.346153846153846,4,6.800000000000001,8
102,1,2,"{'LOB': 5, 'NAGEA': 6.0, 'LOA': 3, 'LOF': 6, 'LABO': 6, 'JETA': 6.0, 'LOBA': 6, 'OBA': 5, 'LOFA': 7, 'FOL': 6, 'VOUAS': 8.0, 'BOL': 5, 'FOB': 8, 'NOUES': 3.0, 'FLA': 6, 'BOA': 5, 'BAL': 5, 'BOF': 8, 'OLA': 3, 'LAO': 3, 'DOINA': 3.5}",21,3,3,5,6,5.404761904761905,5,8,8
102,1,3,"{'NUERS': 3.0, 'DINAR': 3.5, 'NAGER': 6.0}",3,3,3.1000000000000005,3.25,3.5,4.166666666666667,3.25,5.500000000000001,6
102,1,4,{},0,0,0,0,0,NA,0,0,0
102,1,5,"{'NAGEA': 6.0, 'JETA': 6.0, 'VOUAS': 8.0, 'JETAS': 6.5, 'NAGERA': 7.0}",5,6,6,6,6.5,6.7,6,7.6,8
102,1,6,{},0,0,0,0,0,NA,0,0,0
102,1,7,{},0,0,0,0,0,NA,0,0,0
102,1,8,"{'JETTES': 7.0, 'SORTS': 3.0, 'POSTAT': 4.6}",3,3,3.3200000000000003,3.8,4.6,4.866666666666666,3.8,6.5200000000000005,7
102,1,9,"{'POSTAT': 4.6, 'NAGEE': 6.0, 'MET': 4, 'EJETS': 6.5, 'SORES': 3.0, 'EJET': 6.0, 'VOUES': 8.0, 'NUEES': 3.0, 'JETE': 6.0, 'JETTES': 7.0, 'SORTS': 3.0}",11,3,3,3.5,6,5.190909090909091,3.5,7,8
102,1,10,"{'POSTAT': 4.6, 'JETE': 6.0, 'NAGEE': 6.0, 'MET': 4, 'EJETS': 6.5, 'SORES': 3.0, 'EJET': 6.0, 'VOUES': 8.0, 'NUEES': 3.0, 'SORTES': 3.4, 'JETTES': 7.0}",11,3,3,3.7,6,5.2272727272727275,3.7,7,8
102,2,1,"{'AIDEE': 6.0, 'TAON': 4, 'ANA': 3, 'IODEE': 6.0, 'OTA': 3, 'POILA': 7.0, 'TON': 3, 'TAN': 3, 'TAO': 3, 'NOTA': 4, 'ONT': 3}",11,3,3,3,3,4.090909090909091,3,6,7
102,2,2,"{'AIDEE': 6.0, 'TAON': 4, 'ANA': 3, 'IODEE': 6.0, 'OTA': 3, 'POILA': 7.0, 'TON': 3, 'TAN': 3, 'TAO': 3, 'NOTA': 4, 'ONT': 3}",11,3,3,3,3,4.090909090909091,3,6,7
102,2,3,"{'ENTA': 4, 'POILAT': 8.0, 'IODEE': 6.0, 'ANE': 3, 'EON': 3, 'ETA': 3, 'TON': 3, 'NOTE': 4, 'ANTE': 4, 'NET': 3, 'NEO': 3, 'AIDEE': 6.0, 'TAON': 4, 'ANA': 3, 'ORALE': 5.0, 'OTA': 3, 'EMOTIFS': 11.0, 'EMOTIF': 10.0, 'OTE': 3, 'TENUE': 5.0, 'POILE': 7.0, 'NOTA': 4, 'LIEUE': 5.0, 'TAN': 3, 'TAO': 3, 'ONT': 3, 'ATONE': 5}",27,3,3,3,4,4.592592592592593,3,7.400000000000002,11
102,2,4,"{'ENTA': 4, 'NEO': 3, 'POILANT': 9.0, 'IODEE': 6.0, 'ANE': 3, 'EON': 3, 'ETA': 3, 'TON': 3, 'ANTE': 4, 'NET': 3, 'POILEE': 8.0, 'AIDEE': 6.0, 'TAON': 4, 'ANA': 3, 'ORALE': 5.0, 'OTA': 3, 'EMOTIFS': 11.0, 'EMOTIF': 10.0, 'OTE': 3, 'TENUE': 5.0, 'NOTE': 4, 'NOTA': 4, 'LIEUE': 5.0, 'TAN': 3, 'TAO': 3, 'ONT': 3, 'ATONE': 5}",27,3,3,3,4,4.666666666666667,3,8.400000000000002,11
102,2,5,"{'LOA': 3, 'POILANT': 9.0, 'TONAL': 5, 'IODEE': 6.0, 'OLA': 3, 'TON': 3, 'LOT': 3, 'TOLA': 4, 'ANAL': 4, 'ALTO': 4, 'AIDEE': 6.0, 'TAON': 4, 'LAO': 3, 'ANA': 3, 'OTA': 3, 'TAAL': 4, 'IDEEL': 6.0, 'NOTA': 4, 'TALON': 5, 'NATAL': 5, 'LOTO': 4, 'TALA': 4, 'TAN': 3, 'TAO': 3, 'ONT': 3}",25,3,3,3,4,4.16,3,6,9
102,2,6,"{'ATMAN': 6, 'LOA': 3, 'TONAL': 5, 'AMAN': 5, 'MANAT': 6, 'MOTO': 5, 'TON': 3, 'LOT': 3, 'TOM': 4, 'LOMO': 5, 'POILAIT': 9.0, 'AIDEE': 6.0, 'ANAL': 4, 'LAMAT': 6, 'MONO': 5, 'MALT': 5, 'MONT': 5, 'IDEEL': 6.0, 'NOTA': 4, 'MANA': 5, 'AMONT': 6, 'LOTO': 4, 'TALA': 4, 'TOLA': 4, 'TAO': 3, 'AMANT': 6, 'ONT': 3, 'POILANT': 9.0, 'IODEE': 6.0, 'TOMAN': 6, 'MATA': 5, 'OLA': 3, 'MALTA': 6, 'MOLTO': 6, 'LAMA': 5, 'TOMA': 5, 'MANTA': 6, 'TAN': 3, 'ANA': 3, 'ALTO': 4, 'NOM': 4, 'TAON': 4, 'NOMA': 5, 'MAT': 4, 'MONTA': 6, 'OTA': 3, 'TAAL': 4, 'TAMA': 5, 'LAO': 3, 'MOT': 4, 'TALON': 5, 'NATAL': 5, 'MORAL': 6.0, 'MON': 4, 'MOL': 4, 'MALON': 6, 'MOA': 4, 'MATON': 6, 'MAL': 4, 'MAO': 4, 'MAN': 4}",61,3,3,4,5,4.770491803278689,4,6,9
102,2,7,"{'NEO': 3, 'POILANT': 9.0, 'IODEE': 6.0, 'EON': 3, 'TON': 3, 'NET': 3, 'POILAIT': 9.0, 'LAMAT': 6.0, 'ORALE': 5.0, 'EMOTIFS': 11.0, 'EMOTIF': 10.0, 'OTE': 3, 'TENUE': 5.0, 'NOTE': 4, 'LIEUE': 5.0, 'ONT': 3}",16,3,3,3,5,5.5,3,9.5,11
102,2,8,"{'NEO': 3, 'POILANT': 9.0, 'IODEE': 6.0, 'AIDA': 5.0, 'EON': 3, 'LIEUE': 5.0, 'LAMANT': 7.0, 'LAMAIT': 7.0, 'ORALE': 5.0, 'OIE': 3, 'EMOTIF': 10.0, 'TENUE': 5.0, 'NIE': 3, 'ION': 3, 'NOIE': 4, 'LAMAI': 6.0}",16,3,3,3,5,5.25,3,8,10
102,2,9,"{'NEO': 3, 'LAMANT': 7.0, 'POILANT': 9.0, 'OLE': 3, 'LAMPANT': 10.0, 'IODEE': 6.0, 'ORALE': 5.0, 'LONE': 4, 'EMOTIF': 10.0, 'EON': 3, 'TENUE': 5.0, 'ENOL': 4, 'IDEEL': 6.0, 'NOEL': 4, 'LIEUE': 5.0}",15,3,3,4,5,5.6,4,9.6,10
102,2,10,"{'LAMANT': 7.0, 'POILANT': 9.0, 'LAMPANT': 10.0, 'LAMPA': 8.0, 'IODEE': 6.0, 'POLO': 6, 'IDEEL': 6.0, 'POOL': 6}",8,6,6,6,6.5,7.25,6,9.3,10
103,1,1,"{'FOI': 6, 'TIF': 6, 'POSTAT': 4.0, 'FIT': 6, 'DINAI': 6.0, 'NOUES': 3.0, 'FOIN': 7, 'TIN': 3, 'TOI': 3, 'TON': 3, 'DINAT': 6.0, 'SORTS': 5.0, 'FONT': 7, 'TOF': 6, 'FON': 6, 'POSTA': 4.0, 'POSANT': 4.0, 'INFO': 7, 'FION': 7, 'FIN': 6, 'POSAIT': 4.0, 'NIF': 6, 'POSAI': 4.0, 'DOINA': 6.0, 'SOIRS': 5.0, 'ION': 3, 'ONT': 3, 'OINT': 4, 'OIT': 3, 'NIT': 3}",30,3,3,3.25,5,4.866666666666666,3.25,7,7
103,1,2,"{'NUAGE': 3.5, 'SORTS': 5.0, 'POSTAT': 4.0, 'POSTA': 4.0, 'DINAT': 6.0}",5,3.5,3.7,4,4,4.5,4,5.6,6
103,1,3,"{'NUEES': 3.0, 'SORES': 5.0, 'NAGEUR': 3.8, 'EJET': 6.0, 'NAGEE': 3.5, 'NUAGE': 3.5, 'JETE': 6.0, 'VOUES': 4.5}",8,3,3.35,3.5,4.15,4.4125,3.5,6,6
103,1,4,"{'NAGEE': 3.5, 'JETES': 6.5, 'SORES': 5.0, 'POSAIT': 4.0, 'POSAI': 4.0, 'EJET': 6.0, 'VOUES': 4.5, 'EJETS': 6.5, 'NUEES': 3.0, 'JETE': 6.0, 'SOIRS': 5.0, 'DINAI': 6.0, 'DINAIT': 7.0}",13,3,3.6,4,5,5.153846153846154,4,6.5,7
103,1,5,"{'NAGERAI': 4.0, 'NAGEE': 3.5, 'JETES': 6.5, 'SORES': 5.0, 'POSAIT': 4.0, 'POSAI': 4.0, 'EJET': 6.0, 'VOUES': 4.5, 'EJETS': 6.5, 'NUEES': 3.0, 'JETE': 6.0, 'SOIRS': 5.0, 'DINAIT': 7.0}",13,3,3.6,4,5,5,4,6.5,7
103,1,6,"{'POSTAT': 4.0, 'NAGEE': 3.5, 'JETES': 6.5, 'SORES': 5.0, 'EJET': 6.0, 'VOUES': 4.5, 'EJETS': 6.5, 'NUEES': 3.0, 'JETE': 6.0, 'SORTS': 5.0, 'POSTA': 4.0, 'DINAIT': 7.0}",12,3,3.55,4,5,5.083333333333333,4,6.5,7
103,1,7,"{'JETES': 6.5, 'NAGEE': 3.5, 'EJET': 6.0, 'NUEES': 3.0, 'EJETS': 6.5, 'SORES': 5.0, 'JETE': 6.0, 'VOUES': 4.5}",8,3,3.35,4.25,5.5,5.125,4.25,6.5,6.5
103,1,8,"{'POSTAT': 4.6, 'JETEES': 7.5, 'NAGEE': 3.5, 'EJETS': 6.5, 'SORES': 5.0, 'EJET': 6.0, 'VOUES': 4.5, 'NUEES': 3.0, 'JETE': 6.0, 'JETTES': 7.5, 'SORTS': 5.0}",11,3,3.5,4.55,5,5.372727272727273,4.55,7.5,7.5
103,1,9,"{'NUEES': 3.0, 'POSTAT': 4.6, 'NAGEE': 3.5, 'EJET': 6.0, 'SORES': 5.0, 'EJETS': 6.5, 'JETTES': 7.5, 'SORTS': 5.0, 'JETE': 6.0, 'VOUES': 4.5}",10,3,3.4499999999999997,4.525,5,5.16,4.525,6.6,7.5
103,1,10,"{'DINAR': 6.0, 'NUEES': 3.0, 'JETE': 6.0, 'EJET': 6.0, 'NUERS': 3.0, 'EJETS': 6.5, 'SORES': 5.0, 'SORTES': 6.0, 'VOUES': 4.5}",9,3,3,4.5,6,5.111111111111111,4.5,6.1,6.5
103,2,1,"{'FETAS': 8, 'EST': 3, 'TAFS': 7, 'ASE': 3, 'FATE': 7, 'FATES': 8, 'ETA': 3, 'FAT': 6, 'FATS': 7, 'CEDES': 8.0, 'LIEUS': 5.0, 'AIDEE': 6.0, 'SET': 3, 'POILS': 7.0, 'TAS': 3, 'ORALE': 5.0, 'ASTE': 4, 'TENUE': 5.0, 'CEDEE': 8.0, 'POILE': 7.0, 'IDEES': 6.0, 'TAF': 6, 'POILA': 7.0, 'SATE': 4, 'FETA': 7, 'TENUS': 5.0, 'LIEUE': 5.0, 'TES': 3, 'FASTE': 8}",29,3,3,4,6,5.655172413793103,4,8,8
103,2,2,"{'FETAS': 8, 'EST': 3, 'TAFS': 7, 'FETA': 7, 'FATE': 7, 'FATES': 8, 'ETA': 3, 'FAT': 6, 'FATS': 7, 'CEDES': 8.0, 'AIDEE': 6.0, 'SET': 3, 'POILS': 7.0, 'TAS': 3, 'ORALE': 5.0, 'CEDEES': 9.0, 'EMOTIF': 10.0, 'ASTE': 4, 'TENUE': 5.0, 'LIEUS': 5.0, 'POILE': 7.0, 'IDEES': 6.0, 'TAF': 6, 'ASE': 3, 'POILA': 7.0, 'SATE': 4, 'MOTIFS': 10.0, 'TENUS': 5.0, 'LIEUE': 5.0, 'TES': 3, 'FASTE': 8}",31,3,3,4.5,6,5.967741935483871,4.5,8,10
103,2,3,"{'FEE': 6, 'FATE': 7, 'TEE': 3, 'ETA': 3, 'FAT': 6, 'ETE': 3, 'AIDEE': 6.0, 'ORALE': 5.0, 'EMOTIFS': 11.0, 'EMOTIF': 10.0, 'FETE': 7, 'TENUE': 5.0, 'POILE': 7.0, 'TAF': 6, 'FETA': 7, 'LIEUE': 5.0}",16,3,3,5,6,6.0625,5,8.5,11
103,2,4,"{'FATE': 7, 'ETA': 3, 'KEA': 12, 'FAT': 6, 'AIDEE': 6.0, 'TEK': 12, 'ORALE': 5.0, 'EMOTIFS': 11.0, 'EMOTIF': 10.0, 'TENUE': 5.0, 'TAF': 6, 'FETA': 7, 'KAT': 12, 'LIEUE': 5.0, 'KEFTA': 17, 'KET': 12}",16,3,5,5.75,7,8.5,5.75,12,17
103,2,5,{},0,0,0,0,0,NA,0,0,0
103,2,6,{},0,0,0,0,0,NA,0,0,0
103,2,7,{'LAMAT': 6.0},1,6,6,6,6,6,6,6,6
103,2,8,{'AIDEE': 6.0},1,6,6,6,6,6,6,6,6
103,2,9,"{'ORALE': 5.0, 'AIDEE': 6.0, 'EMOTIF': 10.0, 'TENUE': 5.0}",4,5,5,5,5.5,6.5,5,8.8,10
103,2,10,"{'ORALE': 5.0, 'AIDEE': 6.0, 'EMOTIF': 10.0, 'TENUE': 5.0}",4,5,5,5,5.5,6.5,5,8.8,10
104,1,1,"{'COQ': 12, 'COR': 5, 'ROC': 5, 'DOINA': 3.5, 'DINAR': 3.5, 'NAGER': 3.5, 'NOUES': 5.0, 'NUERS': 5.0}",8,3.5,3.5,3.5,5,5.3125,3.5,7.099999999999999,12
104,1,2,"{'NUERS': 5.0, 'DINAR': 3.5, 'NAGER': 3.5}",3,3.5,3.5000000000000004,3.5,3.5,4,3.5,4.7,5
104,1,3,{},0,0,0,0,0,NA,0,0,0
104,1,4,"{'NAGEA': 3.5, 'NAGERA': 4.5, 'VOUAS': 4.5, 'PAL': 5}",4,3.5,3.8,4.25,4.5,4.375,4.25,4.85,5
104,1,5,"{'SPORES': 5.5, 'PSORES': 5.5, 'DINKA': 12.5}",3,5.5,5.5,5.5,5.5,7.833333333333333,5.5,11.1,12.5
104,1,6,"{'DINKA': 12.5, 'DOINA': 3.5, 'NOUES': 5.0}",3,3.5,3.8,4.25,5,7,4.25,11,12.5
104,1,7,"{'DINARS': 4.0, 'NOUES': 5.0, 'SOL': 3, 'DOINA': 3.5, 'ROCKS': 11.0, 'DINAS': 3.5, 'LOS': 3, 'TROCS': 6.4, 'NAGES': 3.5, 'NAGEES': 4.0, 'POSAS': 7.0, 'NAGERAS': 5.5, 'NAGEAS': 4.0, 'ROCS': 6.0, 'DINKA': 12.5}",15,3,3.2,3.5,4,5.46,3.5,9.4,12.5
104,1,8,"{'NUEES': 5.0, 'SOLE': 4.0, 'DINKA': 12.5, 'VOUES': 4.5}",4,4,4.15,4.375,4.75,6.5,4.375,10.25,12.5
104,1,9,"{'NUERS': 5.0, 'DINKA': 12.5}",2,5,5.75,6.875,8.75,8.75,6.875,11.75,12.5
104,1,10,"{'DINKA': 12.5, 'NAGEUR': 4.5, 'AUNE': 1.9, 'NUERS': 5.0, 'NUAGE': 3.5, 'SOULE': 5.0, 'COMMUE': 3.7, 'SOUL': 4.0, 'KRU': 12}",9,1.9,3.18,3.7,4.5,5.788888888888888,3.7,12.1,12.5
104,2,1,"{'ORVAL': 8.0, 'DES': 4, 'VIDE': 8, 'VISE': 7, 'LIEUS': 5.0, 'IDES': 5, 'IDE': 4, 'POILS': 7.0, 'VIS': 6, 'VIDES': 9, 'DEVI': 8, 'SEVI': 7, 'TENUE': 5.0, 'POILE': 7.0, 'IDEES': 6.0, 'TENUS': 5.0, 'DIS': 4, 'DIVES': 9, 'VIDEE': 9.0, 'SIED': 5, 'VES': 6, 'DIVE': 8, 'TENDU': 6.0, 'CEDES': 8.0, 'DEVIS': 9, 'IVE': 6, 'VIE': 6, 'ORALE': 5.0, 'CEDEE': 8.0, 'IVES': 7, 'LIEUE': 5.0, 'VIES': 7, 'DISE': 5}",33,4,5,5,6,6.484848484848484,5,8.8,9
104,2,2,"{'POILE': 7.0, 'TENDU': 6.0, 'LIEUE': 5.0, 'ORALE': 5.0, 'VISEE': 8.0, 'TENUE': 5.0, 'CEDEE': 8.0}",7,5,5,5,6,6.285714285714286,5,8,8
104,2,3,"{'AVISEE': 9.0, 'TENDU': 6.0, 'AVISE': 8.0, 'AVISER': 9.0, 'AVISERA': 10.0, 'AIDEE': 6.0}",6,6,6,6.5,8.5,8,6.5,9.5,10
104,2,4,"{'AVISEE': 9.0, 'TENDU': 6.0, 'AVISERA': 10.0, 'POILAS': 8.0, 'AIDEE': 6.0, 'RIDEE': 6.0, 'RAD': 4, 'LIEUR': 5.0, 'CEDER': 8.0, 'AVISE': 8.0, 'AVISER': 9.0, 'CEDRE': 8.0}",12,4,5.1000000000000005,6,8,7.25,6,9,10
104,2,5,"{'POILU': 7.0, 'AVISEE': 9.0, 'AVISER': 9.0, 'POILAS': 8.0, 'AIDEE': 6.0, 'POILUES': 9.0, 'CEDERA': 9.0, 'TENDU': 6.0, 'AVISE': 8.0, 'AVISERA': 10.0, 'POILUS': 8.0, 'VISEUR': 9.0}",12,6,6.1,7.75,8.5,8.166666666666666,7.75,9,10
104,2,6,"{'CEDERA': 9.0, 'AVISEE': 9.0, 'TENDU': 6.0, 'AVISE': 8.0, 'AVISERA': 10.0, 'AVISER': 9.0, 'AIDEE': 6.0, 'POILAS': 8.0, 'POILU': 7.0, 'VISEUR': 9.0}",10,6,6,7.25,8.5,8.1,7.25,9.1,10
104,2,7,"{'VISEUR': 9.0, 'TENDU': 6.0, 'POILU': 7.0}",3,6,6.200000000000001,6.5,7,7.333333333333333,6.5,8.6,9
104,2,8,"{'VISEUR': 9.0, 'TENDU': 6.0, 'QUEL': 11.0, 'IDEEL': 6.0}",4,6,6,6,7.5,8,6,10.4,11
104,2,9,"{'CEDEZ': 17.0, 'TENDU': 6.0, 'TOND': 5.0, 'VISEZ': 17.0, 'QUEL': 11.0, 'IDEEL': 6.0}",6,5,5.5,6,8.5,10.333333333333334,6,17,17
104,2,10,"{'TENDU': 6.0, 'DOL': 4, 'TOND': 5.0, 'PION': 6.0, 'IODEE': 6.0, 'VOISE': 8.0, 'QUEL': 11.0, 'IDEEL': 6.0}",8,4,4.7,5.75,6,6.5,5.75,8.899999999999999,11
105,1,1,"{'DOM': 5, 'DOINA': 3.5, 'NOUES': 3.0}",3,3,3.1000000000000005,3.25,3.5,3.8333333333333335,3.25,4.7,5
105,1,2,"{'NAGEE': 6.0, 'DOM': 5, 'DEMO': 6, 'MEMO': 6, 'DEO': 4, 'GOMME': 8, 'DOME': 6, 'NUEES': 3.0, 'EGO': 4, 'DEM': 5, 'NOUES': 3.0, 'MODEM': 8, 'MOME': 6, 'GODE': 6, 'SORES': 3.0, 'MEO': 4, 'DOGE': 6, 'DOINA': 3.5, 'VOUES': 8.0, 'DOGME': 8, 'GEO': 4, 'ODE': 4, 'MODE': 6}",23,3,3.1,4,6,5.326086956521739,4,8,8
105,1,3,"{'TOM': 4, 'DOM': 5, 'TROC': 3.5, 'DINAT': 3.5, 'DOINA': 3.5, 'MOT': 4, 'POSAT': 4.0, 'DOT': 4, 'NOUES': 3.0, 'SORTS': 3.0, 'POSTA': 4.0}",11,3,3,3.5,4,3.772727272727273,3.5,4,5
105,1,4,"{'DOM': 5, 'DEMO': 6, 'MEMO': 6, 'DEO': 4, 'GOMME': 8, 'DOME': 6, 'NUEES': 3.0, 'EGO': 4, 'DEM': 5, 'NOUES': 3.0, 'MODEM': 8, 'MOME': 6, 'GODE': 6, 'SORES': 3.0, 'MEO': 4, 'DOGE': 6, 'DOINA': 3.5, 'VOUES': 8.0, 'DOGME': 8, 'GEO': 4, 'ODE': 4, 'MODE': 6}",22,3,3.05,4,5.5,5.295454545454546,4,8,8
105,1,5,"{'DECO': 7, 'DOM': 5, 'DOC': 6, 'MEMO': 6, 'SCORES': 5.5, 'GOMME': 8, 'DOME': 6, 'NUEES': 3.0, 'CODE': 7, 'EGO': 4, 'DEM': 5, 'NOUES': 3.0, 'MODEM': 8, 'COM': 6, 'CROC': 5.5, 'MOME': 6, 'GODE': 6, 'ODE': 4, 'MEC': 6, 'ECO': 5, 'MEO': 4, 'DOGE': 6, 'DEO': 4, 'DOINA': 3.5, 'VOUES': 8.0, 'COMME': 9, 'MODE': 6, 'DEMO': 6, 'GEO': 4, 'MEDOC': 9, 'DOGME': 8}",31,3,4,4.5,6,5.790322580645161,4.5,8,9
105,1,6,"{'CODES': 8, 'MODES': 7, 'DOM': 5, 'DOC': 6, 'NAGES': 6.0, 'EGO': 4, 'DEMS': 6, 'ECOS': 6, 'NOUES': 3.0, 'DOS': 4, 'ROCS': 3.5, 'COM': 6, 'CROC': 5.5, 'DOMS': 6, 'CODE': 7, 'ECO': 5, 'MEOS': 5, 'DOINA': 3.5, 'DEMOS': 7, 'TROCS': 4.5, 'SODE': 5, 'SEC': 5, 'DOGME': 8, 'DEMO': 6, 'MECS': 7, 'MEMOS': 7, 'ODE': 4, 'DECOS': 8, 'COMS': 7, 'DOME': 6, 'DINAS': 3.5, 'NUEES': 3.0, 'NAGEES': 7.0, 'SCORES': 5.5, 'DOSE': 5, 'MOME': 6, 'MEC': 6, 'OSE': 3, 'MEO': 4, 'ODES': 5, 'MEDOC': 9, 'MES': 4, 'POSAS': 4.0, 'DECO': 7, 'DES': 4, 'GOMME': 8, 'ROCKS': 8.5, 'DEM': 5, 'DEO': 4, 'NAGERAS': 7.2, 'GODE': 6, 'SOC': 5, 'MODEM': 8, 'DINARS': 4.0, 'GEOS': 5, 'SOM': 4, 'VOUES': 8.0, 'COMME': 9, 'CES': 5, 'MODE': 6, 'SMOG': 6, 'GEO': 4, 'MEMO': 6, 'SOMME': 7, 'DEOS': 5, 'GODES': 7, 'DOCS': 7, 'DOMES': 7, 'MOMES': 7, 'DOGES': 7, 'GOS': 4, 'MOS': 4, 'DOGE': 6}",73,3,4,4,6,5.708219178082191,4,8,9
105,1,7,"{'TRONC': 4.5, 'DINARS': 4.0, 'ROCKS': 8.5, 'DINAS': 3.5, 'TROCS': 4.5, 'NAGES': 6.0, 'NAGEES': 7.0, 'POSAS': 4.0, 'NAGERAS': 7.2, 'NAGEAS': 6.5, 'ROCS': 3.5, 'SOLS': 1.0}",12,1,3.5,3.875,4.5,5.016666666666667,3.875,7.180000000000001,8.5
105,1,8,"{'NUEES': 3.0, 'SOLDE': 2.0, 'TRONC': 4.5, 'SOLEN': 1.0, 'VOUES': 8.0}",5,1,1.4,2,3,3.7,2,6.6000000000000005,8
105,1,9,"{'TRONC': 4.5, 'ANGE': 5, 'AGE': 4, 'ADNE': 5, 'NUEES': 3.0, 'VOUAS': 8.0, 'ANE': 3, 'SOLEN': 1.0, 'SOLEA': 1.0, 'SOLDE': 2.0, 'VOUES': 8.0, 'GAN': 4, 'NAGE': 5, 'GADE': 6, 'DAN': 4, 'GENA': 5}",16,1,1.5,3,4.25,4.28125,3,7,8
105,1,10,"{'ADNE': 5.0, 'SOLO': 1.0, 'ANGE': 5.0, 'NOUEES': 3.2, 'SOLDE': 2.0, 'NOUES': 3.0, 'DOINA': 3.5}",7,1,1.6,2.5,3.2,3.242857142857143,2.5,5,5
105,2,1,"{'AIDEE': 6.0, 'ABEE': 6, 'ORALE': 5.0, 'BEA': 5, 'TENUE': 5.0, 'CEDEE': 8.0, 'POILE': 7.0, 'AVISE': 8.0, 'POILA': 7.0, 'VISEE': 8.0, 'LIEUE': 5.0, 'BEE': 5}",12,5,5,5,6,6.25,5,8,8
105,2,2,"{'POILU': 7.0, 'POILE': 7.0, 'ORALE': 5.0, 'TENUE': 5.0, 'BEE': 5, 'VISEUR': 9.0, 'EUE': 3, 'QUE': 10, 'BUEE': 6, 'VISEE': 8.0, 'LIEUE': 5.0, 'BEU': 5, 'BUE': 5}",13,3,5,5,5,6.153846153846154,5,8.8,10
105,2,3,"{'POILU': 7.0, 'POILE': 7.0, 'ORALE': 5.0, 'TENUE': 5.0, 'BEE': 5, 'VISEUR': 9.0, 'EUE': 3, 'QUE': 10, 'BUEE': 6, 'LIEUE': 5.0, 'BEU': 5, 'BUE': 5}",12,3,5,5,5,6,5,8.8,10
105,2,4,"{'POILE': 7.0, 'POILAT': 8.0, 'ORALE': 5.0, 'LIEUE': 5.0, 'POILES': 8.0, 'TENUE': 5.0}",6,5,5,5,6,6.333333333333333,5,8,8
105,2,5,"{'VISEUR': 9.0, 'POILAT': 8.0, 'POILUS': 8.0, 'POILU': 7.0, 'TUB': 5, 'BUT': 5}",6,5,5,5.5,7.5,7,5.5,8.5,9
105,2,6,"{'POILAT': 8.0, 'IODEE': 6.0, 'VOISE': 8.0, 'BOT': 5, 'VOISEE': 9.0}",5,5,5.4,6,8,7.2,6,8.6,9
105,2,7,"{'POILAT': 8.0, 'PION': 6.0, 'IODEE': 6.0, 'VOISEE': 9.0, 'VOISE': 8.0, 'BOT': 5, 'FOB': 8, 'TOF': 6, 'BOF': 8}",9,5,5.800000000000001,6,8,7.111111111111111,6,8.2,9
105,2,8,"{'POILAT': 8.0, 'BON': 5, 'PION': 6.0, 'IODEE': 6.0, 'VOISEE': 9.0, 'VOISE': 8.0, 'BOT': 5, 'TON': 3, 'BOF': 8, 'FOB': 8, 'FON': 6, 'FONT': 7, 'TOF': 6, 'ONT': 3}",14,3,3.5999999999999996,5.25,6,6.285714285714286,5.25,8,9
105,2,9,"{'POILE': 7.0, 'LIEUE': 5.0, 'POILEES': 9.0, 'TENUE': 5.0, 'PINE': 6.0}",5,5,5,5,6,6.4,5,8.2,9
105,2,10,"{'DOLE': 5.0, 'PINE': 6.0, 'LIEUE': 5.0, 'POILEES': 9.0, 'POILEE': 8.0, 'TENUE': 5.0}",6,5,5,5,5.5,6.333333333333333,5,8.5,9
106,1,1,"{'DINAR': 6.0, 'NAGER': 3.5, 'BIP': 7, 'PRIX': 15, 'NUERS': 3.0, 'DINAI': 6.0, 'POSAI': 4.0, 'BROC': 5.5, 'SOIRS': 5.0}",9,3,3.4000000000000004,4,5.5,6.111111111111111,4,8.600000000000001,15
106,1,2,"{'NUERS': 3.0, 'DINAR': 6.0, 'DINKA': 15.0, 'BROC': 5.5, 'ROCK': 12.5}",5,3,4,5.5,6,8.4,5.5,14,15
106,1,3,"{'DINKA': 15.0, 'BROC': 5.5, 'ROCK': 12.5}",3,5.5,6.9,9,12.5,11,9,14.5,15
106,1,4,"{'NUEES': 3.0, 'SORES': 5.0, 'DEB': 6, 'BROC': 5.5, 'VOUES': 4.5}",5,3,3.5999999999999996,4.5,5,4.8,4.5,5.8,6
106,1,5,"{'SPORES': 8.0, 'SORBES': 8.0, 'NAGEZ': 12.5, 'SOBRES': 8.0, 'BROC': 5.5}",5,5.5,6.5,8,8,8.4,8,10.7,12.5
106,1,6,"{'NAGEA': 3.5, 'VOUAS': 4.5, 'DAB': 6, 'SPORES': 8.0, 'SOBRES': 8.0, 'SORBES': 8.0, 'BROC': 5.5}",7,3.5,4.1,5,6,6.214285714285714,5,8,8
106,1,7,"{'NAGEUR': 4.1, 'PUB': 7, 'SORBES': 8.0, 'NUAGE': 3.5, 'SPORES': 8.0, 'SOBRES': 8.0, 'DUB': 6, 'COMMUE': 3.7, 'SOUL': 1.0, 'BROC': 5.5}",10,1,3.25,3.8,5.75,5.4799999999999995,3.8,8,8
106,1,8,"{'SOLEX': 10.0, 'NAGERAS': 5.0, 'SOLDE': 2.0, 'NUERS': 3.0}",4,2,2.3,2.75,4,5,2.75,8.5,10
106,1,9,"{'SOLEX': 10.0, 'ADNE': 2.9, 'NUEES': 3.0, 'SOLDE': 2.0, 'ANEE': 1.9, 'VOUES': 4.5}",6,1.9,1.95,2.225,2.95,4.05,2.225,7.25,10
106,1,10,"{'ADNE': 2.9, 'ROCKS': 13.5, 'ANSE': 1.9, 'DINARS': 7.0, 'SOLDE': 2.0, 'SAUNE': 1.9, 'ROCS': 3.5, 'SOLEX': 10.0, 'ANES': 1.9, 'TROCS': 3.9, 'NAGES': 3.5, 'PUBS': 8.0, 'AUNES': 1.9, 'POSAS': 4.0, 'SOLOS': 1.2999999999999998, 'SOLES': 1.0, 'DINAS': 6.0, 'SOLS': 1.0, 'NAGEES': 4.0}",19,1,1.2399999999999998,1.9,3.5,4.168421052631579,1.9,8.399999999999999,13.5
106,2,1,"{'LIEUS': 5.0, 'POILS': 7.0, 'POILAS': 8.0, 'CEDER': 8.0, 'RIDEE': 6.0, 'VISER': 8.0, 'VISSE': 8.0, 'IDEES': 6.0, 'LIEUR': 5.0, 'CEDRE': 8.0, 'TENUS': 5.0, 'CEDES': 8.0, 'VISES': 8.0}",13,5,5,6,8,6.923076923076923,6,8,8
106,2,2,"{'AVISEE': 9.0, 'CEDRE': 8.0, 'VISERA': 9.0, 'AIDEE': 6.0, 'RIDEE': 6.0, 'ARS': 3, 'VISSE': 8.0, 'TENUS': 5.0, 'AVISE': 8.0, 'AVISER': 9.0, 'SAR': 3, 'VISES': 8.0, 'VISSEE': 9.0, 'AYS': 12, 'NAYS': 13, 'NAY': 12, 'VISEES': 9.0, 'RAYS': 13, 'POILAS': 8.0, 'POILS': 7.0, 'CEDEES': 9.0, 'LIEUR': 5.0, 'LIEUS': 5.0, 'IDEES': 6.0, 'RAS': 3, 'ANS': 3, 'CEDER': 8.0, 'CEDES': 8.0, 'VISSER': 9.0, 'RAY': 12}",30,3,3,6,8,7.766666666666667,6,12,13
106,2,3,"{'SIR': 3, 'POILAS': 8.0, 'RIDEE': 6.0, 'YIN': 12, 'VISERAI': 10.0, 'VISSE': 8.0, 'TENUS': 5.0, 'VISERAS': 10.0, 'CEDRE': 8.0, 'VISES': 8.0, 'POILAI': 8.0, 'VISSEE': 9.0, 'VISEES': 9.0, 'VISSERA': 10.0, 'POILS': 7.0, 'CEDEES': 9.0, 'RIS': 3, 'LIEUR': 5.0, 'LIEUS': 5.0, 'IDEES': 6.0, 'YINS': 13, 'CEDER': 8.0, 'CEDES': 8.0, 'VISSER': 9.0}",24,3,5,6,8,7.791666666666667,6,10,13
106,2,4,"{'RYE': 12, 'POILES': 8.0, 'YIN': 12, 'VISERAI': 10.0, 'NIER': 4, 'TENUE': 5.0, 'CEDRE': 8.0, 'NEY': 12, 'POILAI': 8.0, 'IRE': 3, 'RIEN': 4, 'YEN': 12, 'LIEUR': 5.0, 'NIE': 3, 'POILE': 7.0, 'LIEUE': 5.0, 'REIN': 4, 'RIE': 3, 'RIDEE': 6.0}",19,3,3,4,6,6.894736842105263,4,12,12
106,2,5,"{'PIN': 5, 'VISERAI': 10.0, 'CEDRE': 8.0, 'RIDEE': 6.0, 'YIN': 12, 'POILAI': 8.0, 'LIEUR': 5.0}",7,5,5,5.5,8,7.714285714285714,5.5,10.8,12
106,2,6,"{'PIN': 5, 'LIEUR': 5.0, 'CEDRE': 8.0, 'CEDERAI': 10.0, 'RIDEE': 6.0, 'YIN': 12, 'POILAI': 8.0, 'VISERAI': 10.0}",8,5,5,5.75,8,8,5.75,10.6,12
106,2,7,"{'POILE': 7.0, 'LIEUR': 5.0, 'PINE': 6.0, 'CEDRE': 8.0, 'LIEUE': 5.0, 'POILEES': 9.0, 'RYE': 12, 'POILUE': 8.0, 'RIDEE': 6.0, 'TENUE': 5.0}",10,5,5,5.25,6.5,7.1,5.25,9.3,12
106,2,8,"{'CEDRE': 8.0, 'PION': 6.0, 'IODEE': 6.0, 'VOISEE': 9.0, 'RIDEE': 6.0, 'VOISE': 8.0, 'LIEUR': 5.0}",7,5,5.6,6,6,6.857142857142857,6,8.4,9
106,2,9,"{'POILAT': 8.0, 'RIDEE': 6.0, 'POILER': 8.0, 'LIEUR': 5.0, 'CEDRE': 8.0}",5,5,5.4,6,8,7,6,8,8
106,2,10,"{'POILAT': 8.0, 'CEDRE': 8.0, 'PINTE': 7.0, 'RIDEE': 6.0, 'POILER': 8.0, 'LIEUR': 5.0}",6,5,5.5,6.25,7.5,7,6.25,8,8
107,1,1,"{'LIT': 3, 'LUT': 3, 'DINAI': 3.5, 'LUI': 3, 'POSAI': 7.0, 'SOIRS': 3.0, 'POSAT': 7.0, 'LUIT': 4, 'DINAT': 3.5, 'NUAGE': 3.5, 'SORTS': 3.0, 'POSTA': 7.0}",12,3,3,3,3.5,4.208333333333333,3,7,7
107,1,2,"{'LUI': 3, 'NUAGE': 3.5, 'DINAI': 3.5, 'POSTAL': 8.0, 'POSAI': 7.0, 'POSTAI': 8.0, 'SOIRS': 3.0}",7,3,3,3.25,3.5,5.142857142857143,3.25,8,8
107,1,3,"{'POSTAS': 8.0, 'BUIS': 6, 'APOSTAS': 8.0, 'DINARS': 3.5, 'DINAI': 3.5, 'POSAI': 7.0, 'SOIRS': 3.0, 'DINAS': 3.5, 'JUS': 10, 'APOSTAI': 8.0, 'NAGES': 3.5, 'NAGEES': 3.5, 'POSAS': 7.0, 'NUAGE': 3.5, 'BUS': 5, 'BIS': 5, 'POSTAI': 8.0, 'SUBI': 6}",18,3,3.5,3.5,5.5,5.666666666666667,3.5,8,10
107,1,4,"{'POSTAS': 8.0, 'IBN': 5, 'NAGES': 3.5, 'INSU': 4, 'UNI': 3, 'IBNS': 6, 'POSTAI': 8.0, 'JUIN': 11, 'DINARS': 3.5, 'NUS': 3, 'SOIRS': 3.0, 'JUS': 10, 'BUNS': 6, 'BUN': 5, 'NUI': 3, 'BIS': 5, 'UNS': 3, 'BUIS': 6, 'DINAI': 3.5, 'NUIS': 4, 'DINAS': 3.5, 'NAGEES': 3.5, 'NUAGE': 3.5, 'UNIS': 4, 'SUBI': 6, 'APOSTAS': 8.0, 'POSAI': 7.0, 'NIB': 5, 'APOSTAI': 8.0, 'JUINS': 12, 'POSAS': 7.0, 'BUS': 5}",32,3,3,3.5,5,5.5,3.5,8,12
107,1,5,"{'BIO': 5, 'IBN': 5, 'OBI': 5, 'NIB': 5, 'DINAI': 3.5, 'IBO': 5, 'POSAI': 7.0, 'DOINA': 3.5, 'SOIRS': 3.0, 'ION': 3, 'APOSTAI': 8.0, 'BON': 5, 'NOUEES': 5.0, 'BONI': 6, 'POSTAI': 8.0}",15,3,3.2,4.25,5,5.133333333333334,4.25,7.6,8
107,1,6,"{'POSAI': 7.0, 'SORES': 3.0, 'DINAI': 3.5, 'BONI': 6.0, 'VOUES': 4.5, 'ELIT': 1.0, 'APOSTAI': 8.0, 'POSTALE': 9.0, 'ENOUES': 5.0, 'LITE': 1.0, 'NOUEES': 5.0, 'SOIRS': 3.0, 'POSTAI': 8.0}",13,1,1.4000000000000004,3,5,4.923076923076923,3,8,9
107,1,7,"{'NAGEA': 3.5, 'LIAT': 1.0, 'DINAI': 3.5, 'BONI': 6.0, 'POSAI': 7.0, 'APOSTAI': 8.0, 'VOUAS': 4.5, 'LAIT': 1.0, 'SOIRS': 3.0, 'LITA': 1.0, 'POSTAI': 8.0}",11,1,1,2,3.5,4.2272727272727275,2,8,8
107,1,8,"{'LIAT': 1.0, 'NAGEAI': 3.5, 'DINAI': 3.5, 'LAIT': 1.0, 'VOUAS': 4.5, 'SOIRS': 3.0, 'LITA': 1.0, 'BONI': 6.0, 'POSTAI': 8.0, 'POSAI': 7.0}",10,1,1,1.5,3.5,3.85,1.5,7.1,8
107,1,9,"{'LIAT': 1.0, 'NAGEAI': 3.5, 'DINAI': 3.5, 'LAIT': 1.0, 'VOUAS': 4.5, 'SOIRS': 3.0, 'LITA': 1.0, 'BONI': 6.0, 'POSTAI': 8.0, 'POSAI': 7.0}",10,1,1,1.5,3.5,3.85,1.5,7.1,8
107,1,10,"{'LIAT': 1.0, 'NAGEAI': 3.5, 'FRAC': 1.0, 'DINAI': 3.5, 'NAGERA': 3.5, 'SOIRS': 3.0, 'BONI': 6.0, 'VOUAS': 4.5, 'AIR': 3, 'IRA': 3, 'NUERS': 5.0, 'LAIT': 1.0, 'NAGER': 3.5, 'RAI': 3, 'LITA': 1.0, 'POSTAI': 8.0, 'RIA': 3}",17,1,1,3,3,3.323529411764706,3,5.4,8
107,2,1,"{'LEST': 4, 'VET': 6, 'EST': 3, 'VES': 6, 'LEVS': 7, 'ORVAL': 8.0, 'VETS': 7, 'IDEEL': 6.0, 'SEL': 3, 'CEDES': 8.0, 'LIEUS': 5.0, 'TELS': 4, 'SET': 3, 'TEL': 3, 'POILS': 7.0, 'ORALE': 5.0, 'TENUE': 5.0, 'CEDEE': 8.0, 'POILE': 7.0, 'IDEES': 6.0, 'LES': 3, 'LET': 3, 'LEV': 6, 'TENUS': 5.0, 'LIEUE': 5.0, 'TES': 3, 'VIDEE': 9.0}",27,3,3,3.5,5,5.37037037037037,3.5,8,9
107,2,2,"{'TALE': 4, 'ORVAL': 8.0, 'VELA': 7, 'VALET': 8, 'ETA': 3, 'IDEELS': 7.0, 'TENUE': 5.0, 'AIDEE': 6.0, 'VIDEES': 10.0, 'AMORAL': 7.0, 'IDEEL': 6.0, 'POILE': 7.0, 'POILA': 7.0, 'AIDEES': 7.0, 'VIDEE': 9.0, 'TENDUE': 7.0, 'VET': 6, 'VAL': 6, 'LEVAT': 8, 'VELAT': 8, 'MORALE': 7.0, 'AVE': 6, 'TEL': 3, 'LEVA': 7, 'TAEL': 4, 'ETENDU': 7.0, 'ORALE': 5.0, 'LAVE': 7, 'ALE': 3, 'CEDEE': 8.0, 'LET': 3, 'LEV': 6, 'ETAL': 4, 'LIEUE': 5.0, 'TAVEL': 8}",35,3,3.4000000000000004,5,7,6.257142857142857,5,8,10
107,2,3,"{'ALE': 3, 'TALA': 4, 'POILE': 7.0, 'ALTEA': 5, 'TALE': 4, 'MORALE': 7.0, 'ETA': 3, 'IDEELS': 7.0, 'TENUE': 5.0, 'AIDEES': 7.0, 'LET': 3, 'CEPE': 8.0, 'TAEL': 4, 'ETALA': 5, 'AIDEE': 6.0, 'TEL': 3, 'ETENDU': 7.0, 'AMORAL': 7.0, 'TAAL': 4, 'ETENDUE': 8.0, 'IDEEL': 6.0, 'CEDEE': 8.0, 'EVIDEES': 11.0, 'ORALE': 5.0, 'POILA': 7.0, 'ETAL': 4, 'LIEUE': 5.0, 'ALEA': 4}",28,3,3,4,5,5.607142857142857,4,8,11
107,2,4,"{'FLAT': 7, 'ALFA': 7, 'TALA': 4, 'IDEELS': 7.0, 'FAT': 6, 'FLA': 6, 'FATAL': 8, 'AIDEE': 6.0, 'AMORAL': 7.0, 'TAAL': 4, 'IDEEL': 6.0, 'CEDERA': 9.0, 'MORFAL': 10.0, 'TAF': 6, 'POILA': 7.0, 'AIDEES': 7.0, 'AFAT': 7}",17,4,5.2,6,7,6.705882352941177,6,8.4,10
107,2,5,{},0,0,0,0,0,NA,0,0,0
107,2,6,"{'POILE': 7.0, 'ETENDU': 7.0, 'ETENDUE': 8.0, 'TENUE': 5.0, 'CEDEE': 8.0, 'EVIDEES': 11.0, 'CEPE': 8.0, 'LIEUE': 5.0, 'FATALE': 9.0, 'ETENDUS': 8.0, 'ETENDUES': 9.0}",11,5,5,7,8,7.727272727272728,7,9,11
107,2,7,"{'IODEES': 7.0, 'IODEE': 6.0}",2,6,6.1000000000000005,6.25,6.5,6.5,6.25,6.8999999999999995,7
107,2,8,{},0,0,0,0,0,NA,0,0,0
107,2,9,"{'POILE': 7.0, 'ETENDU': 7.0, 'ETENDUE': 8.0, 'POILUE': 8.0, 'TENUE': 5.0, 'CEDEE': 8.0, 'EVIDEES': 11.0, 'CEPE': 8.0, 'LIEUE': 5.0, 'HUNE': 7.0, 'ETENDUS': 8.0, 'ETENDUES': 9.0}",12,5,5.200000000000001,7,8,7.583333333333333,7,8.9,11
107,2,10,"{'PUTE': 6.0, 'THUNE': 8.0, 'ETENDU': 7.0, 'ETENDUE': 8.0, 'POILUE': 8.0, 'TENUE': 5.0, 'ETENDUS': 8.0, 'EVIDEES': 11.0, 'POILE': 7.0, 'CEDEE': 8.0, 'LIEUE': 5.0, 'PUEE': 6.0, 'CEPE': 8.0, 'ETENDUES': 9.0}",14,5,5.300000000000001,6.25,8,7.428571428571429,6.25,8.700000000000001,11
108,1,1,"{'NAGEA': 6.0, 'NAGEE': 6.0, 'DINAR': 3.5, 'SORES': 3.0, 'NAGER': 6.0, 'VOUES': 8.0, 'ERE': 3, 'NUEES': 3.0, 'APOSTA': 4.5, 'VOUAS': 8.0, 'ARE': 3, 'NUERS': 3.0, 'REA': 3, 'AERE': 4, 'REE': 3}",15,3,3,3,3.5,4.466666666666667,3,7.199999999999999,8
108,1,2,"{'NUEES': 3.0, 'APOSTA': 4.5, 'VOUAS': 8.0, 'POSTALE': 4.9, 'NAGEA': 6.0, 'SORES': 3.0, 'ALE': 3, 'VOUES': 8.0}",8,3,3,3,4.7,5.05,3,8,8
108,1,3,"{'ELIE': 4, 'ILE': 3, 'LEI': 3, 'LIE': 3, 'SORES': 3.0, 'DINAI': 3.5, 'LIEE': 4, 'POSAI': 4.0, 'SOIRS': 3.0, 'NUEES': 3.0, 'APOSTAI': 5.5, 'POSTALE': 4.9, 'ENOUES': 3.0, 'NOUEES': 3.0, 'VOUES': 8.0, 'POSTAI': 4.5}",16,3,3,3,3.25,3.9,3,5.2,8
108,1,4,"{'LIE': 3, 'POSTAT': 4.5, 'DINAI': 3.5, 'ENOUES': 3.0, 'LIT': 3, 'VOUES': 8.0, 'ILE': 3, 'POSTALE': 4.9, 'DINAT': 3.5, 'NOUEES': 3.0, 'SORTS': 3.0, 'APOSTAT': 5.5, 'POSTAI': 4.5, 'ILET': 4, 'ELIT': 4, 'TEL': 3, 'SORES': 3.0, 'NOUETS': 3.0, 'POSAI': 4.0, 'SOIRS': 3.0, 'POSAT': 4.0, 'APOSTAI': 5.5, 'LET': 3, 'LEI': 3, 'LITE': 4}",25,3,3,3,3.5,3.836,3,5.260000000000001,8
108,1,5,"{'ELIT': 4.0, 'SORES': 3.0, 'POSTALE': 4.9, 'ENOUES': 3.0, 'LITE': 4.0, 'NOUEES': 3.0, 'VOUES': 8.0}",7,3,3,3,4,4.271428571428571,3,6.1400000000000015,8
108,1,6,"{'ELIT': 4.0, 'SORES': 3.0, 'ENOUES': 3.0, 'LITE': 4.0, 'NOUEES': 3.0, 'VOUES': 8.0}",6,3,3,3,3.5,4.166666666666667,3,6,8
108,1,7,"{'NAGEA': 6.0, 'LAIT': 4.0, 'VOUAS': 8.0, 'LITA': 4.0, 'LIAT': 4.0}",5,4,4,4,4,5.2,4,7.2,8
108,1,8,{'SOMBRES': 5.0},1,5,5,5,5,5,5,5,5
108,1,9,"{'LIFT': 7.0, 'SOMBRES': 5.0}",2,5,5.2,5.5,6,6,5.5,6.8,7
108,1,10,"{'LIFT': 7.0, 'SOMBRES': 5.0, 'VAIR': 4.0}",3,4,4.2,4.5,5,5.333333333333333,4.5,6.6000000000000005,7
108,2,1,"{'POILE': 7.0, 'MORAL': 6.0, 'ORALE': 5.0, 'LIEUE': 5.0, 'TENUE': 5.0, 'CEDEE': 8.0}",6,5,5,5,5.5,6,5,7.5,8
108,2,2,"{'MORALE': 7.0, 'ETENDU': 7.0, 'POILS': 7.0, 'SEP': 5, 'ORALE': 5.0, 'TENDUS': 7.0, 'POILE': 7.0, 'TENUE': 5.0, 'CEDEE': 8.0, 'EVIDEES': 11.0, 'MES': 4, 'LIEUE': 5.0, 'TENUS': 5.0, 'CEDES': 8.0, 'LIEUS': 5.0, 'TENDUE': 7.0}",16,4,5,5,7,6.4375,5,8,11
108,2,3,"{'AIDEE': 6.0, 'MAS': 4, 'PAS': 5, 'BAS': 5, 'POILS': 7.0, 'SPAM': 7, 'AMORAL': 7.0, 'TENDUS': 7.0, 'CEPS': 8.0, 'LIEUS': 5.0, 'MORALE': 7.0, 'ORALES': 6.0, 'POILA': 7.0, 'SPA': 5, 'AIDEES': 7.0, 'TENUS': 5.0, 'CEDES': 8.0, 'TENDUES': 8.0}",18,4,5,5,7,6.333333333333333,5,8,8
108,2,4,"{'CEDERA': 9.0, 'MAS': 4, 'PAS': 5, 'BAS': 5, 'POILS': 7.0, 'AIDEE': 6.0, 'AMORAL': 7.0, 'CEPS': 8.0, 'FATALS': 9.0, 'MORALE': 7.0, 'ORALES': 6.0, 'SPAM': 7, 'POILA': 7.0, 'SPA': 5, 'CEDES': 8.0, 'TENUS': 5.0, 'AIDEES': 7.0, 'LIEUS': 5.0, 'TENDUES': 8.0}",19,4,5,5,7,6.578947368421052,5,8.2,9
108,2,5,"{'PAS': 5, 'BAS': 5, 'AMORALE': 8.0, 'BASA': 6, 'CEPS': 8.0, 'FATALS': 9.0, 'ORALES': 6.0, 'MORALES': 8.0, 'AIDEES': 7.0, 'AIDEE': 6.0, 'POILS': 7.0, 'AMORAL': 7.0, 'SAPA': 6, 'LIEUS': 5.0, 'CEDERA': 9.0, 'ASA': 3, 'POILA': 7.0, 'SPA': 5, 'AAS': 3, 'TENUS': 5.0, 'CEDES': 8.0, 'TENDUES': 8.0}",22,3,5,5,6.5,6.409090909090909,5,8,9
108,2,6,"{'PAS': 5, 'BAS': 5, 'SUA': 3, 'FATALES': 10.0, 'BAU': 5, 'SUP': 5, 'PUAS': 6, 'POILU': 7.0, 'AIDEE': 6.0, 'USA': 3, 'POILS': 7.0, 'AMORAL': 7.0, 'BUS': 5, 'UPAS': 6, 'POILA': 7.0, 'SPA': 5, 'CEDERAS': 10.0, 'TENUS': 5.0, 'AIDEES': 7.0, 'BUSA': 6, 'AMORALE': 8.0, 'CEPS': 8.0, 'FATALS': 9.0, 'PUBS': 8, 'ORALES': 6.0, 'ABUS': 6, 'MORALES': 8.0, 'SUPA': 6, 'PUA': 5, 'PUB': 7, 'LIEUS': 5.0, 'CEDES': 8.0, 'PUS': 5}",33,3,5,5,6,6.333333333333333,5,8,10
108,2,7,"{'AIDEE': 6.0, 'BAU': 5, 'AMORAL': 7.0, 'PUA': 5, 'PUB': 7, 'AMORALE': 8.0, 'POILA': 7.0, 'AIDEES': 7.0}",8,5,5,5.75,7,6.5,5.75,7.3,8
108,2,8,"{'AIDEE': 6.0, 'BAU': 5, 'AMORAL': 7.0, 'PUA': 5, 'PUB': 7, 'AMORALE': 8.0, 'POILA': 7.0, 'AIDEES': 7.0}",8,5,5,5.75,7,6.5,5.75,7.3,8
108,2,9,"{'BEU': 5, 'POILE': 7.0, 'ETENDU': 7.0, 'PEU': 5, 'ETENDUE': 8.0, 'POILUE': 8.0, 'TENUE': 5.0, 'CEDEE': 8.0, 'EVIDEES': 11.0, 'PUB': 7, 'CEPE': 8.0, 'PUE': 5, 'LIEUE': 5.0, 'BUE': 5, 'ETENDUS': 8.0, 'ETENDUES': 9.0}",16,5,5,5,7,6.9375,5,8.5,11
108,2,10,"{'HUNS': 7.0, 'MORALES': 8.0, 'POILS': 7.0, 'BUS': 5, 'PUES': 6.0, 'POILUES': 9.0, 'CEPS': 8.0, 'HUNES': 8.0, 'FATALS': 9.0, 'ORALES': 6.0, 'IODEES': 7.0, 'CEDERAS': 10.0, 'CEDES': 8.0, 'TENUS': 5.0, 'AMORALES': 9.0, 'POILUS': 8.0, 'LIEUS': 5.0}",17,5,5,6,8,7.352941176470588,6,9,10
109,1,1,"{'FOU': 6, 'NAGEE': 3.5, 'SORES': 5.0, 'KEUF': 16, 'OUF': 6, 'DOINA': 6.0, 'VOUES': 4.5, 'NUEES': 3.0, 'FEU': 6, 'NOUES': 3.0, 'NUAGE': 3.5, 'DINKA': 15.0, 'OEUF': 7}",13,3,3.1,3.5,6,6.5,3.5,13.400000000000006,16
109,1,2,"{'FOU': 6, 'DUO': 4, 'OUF': 6, 'DOINA': 6.0, 'OUD': 4, 'NOUES': 3.0, 'NUAGE': 3.5, 'DINKA': 15.0}",8,3,3.35,3.875,5,5.9375,3.875,8.7,15
109,1,3,"{'NUAGE': 3.5, 'DUB': 6, 'DINKA': 15.0}",3,3.5,4,4.75,6,8.166666666666666,4.75,13.2,15
109,1,4,"{'NUAGE': 3.5, 'DUB': 6, 'LIFT': 4.0, 'DINKA': 15.0, 'LUIT': 1.0}",5,1,2,3.5,4,5.9,3.5,11.400000000000002,15
109,1,5,"{'LIFT': 4.0, 'DINKA': 15.0, 'BOND': 4.0}",3,4,4,4,4,7.666666666666667,4,12.8,15
109,1,6,"{'DINKA': 15.0, 'LIFT': 4.0, 'SCORES': 7.0, 'SOBRES': 7.0, 'SORBES': 7.0, 'BOND': 4.0}",6,4,4,4.75,7,7.333333333333333,4.75,11,15
109,1,7,"{'LAIT': 1.0, 'LITA': 1.0, 'LIAT': 1.0, 'LIFT': 4.0, 'SCORES': 7.0, 'FAC': 8, 'VOUAS': 4.5, 'FAF': 9, 'DINKA': 15.0, 'CAF': 8, 'BOND': 4.0}",11,1,1,2.5,4.5,5.681818181818182,2.5,9,15
109,1,8,"{'LIFT': 4.0, 'DINKA': 15.0, 'BOND': 4.0}",3,4,4,4,4,7.666666666666667,4,12.8,15
109,1,9,"{'LAIT': 1.0, 'LIFT': 4.0, 'DINKA': 15.0, 'VOUAS': 4.5, 'FAF': 9, 'LITA': 1.0, 'LIAT': 1.0, 'BOND': 4.0}",8,1,1,1,4,4.9375,1,10.8,15
109,1,10,"{'AIRA': 1.0, 'LAIT': 1.0, 'AIRE': 1.0, 'DINKA': 15.0, 'FADE': 8, 'LIAT': 1.0, 'KEA': 12, 'FACE': 9.0, 'ELIT': 1.0, 'LIFT': 4.0, 'FAF': 9, 'VAIRE': 3.4000000000000004, 'ENOUES': 4.0, 'LITE': 1.0, 'NOUEES': 4.0, 'VOUAS': 4.5, 'VOUES': 4.5, 'LITA': 1.0, 'BOND': 4.0}",19,1,1,1,4,4.652631578947369,1,9.599999999999998,15
109,2,1,"{'PRE': 5, 'POILE': 7.0, 'PERD': 7, 'ORALE': 5.0, 'CEDER': 8.0, 'RIDEE': 6.0, 'CRE': 5, 'TENUE': 5.0, 'CEDEE': 8.0, 'MORALE': 7.0, 'TENDU': 6.0, 'LIEUR': 5.0, 'CEDRE': 8.0, 'CEP': 7, 'RIDEES': 7.0, 'LIEUE': 5.0, 'DER': 4, 'PEC': 7}",18,4,5,5,6.5,6.222222222222222,5,8,8
109,2,2,"{'PRE': 5, 'MORALE': 7.0, 'ETENDU': 7.0, 'ORALE': 5.0, 'RIDEE': 6.0, 'ETENDUE': 8.0, 'TENUE': 5.0, 'CEDEE': 8.0, 'EVIDEES': 11.0, 'CEDER': 8.0, 'LIEUR': 5.0, 'CEDRE': 8.0, 'CEP': 7, 'RIDEES': 7.0, 'LIEUE': 5.0, 'CRE': 5, 'POILE': 7.0, 'PEC': 7}",18,5,5,5,7,6.722222222222222,5,8,11
109,2,3,"{'POILU': 7.0, 'CEDER': 8.0, 'CEDRE': 8.0, 'RIDEES': 7.0, 'RIDEE': 6.0, 'LIEUR': 5.0}",6,5,5.5,6.25,7,6.833333333333333,6.25,8,8
109,2,4,{'POILU': 7.0},1,7,7,7,7,7,7,7,7
109,2,5,"{'POILU': 7.0, 'UNS': 3, 'CEDERAS': 10.0, 'POILS': 7.0, 'CEPS': 8.0, 'NUS': 3, 'FATALS': 9.0, 'ORALES': 6.0, 'MORALES': 8.0, 'TENUS': 5.0, 'CEDES': 8.0, 'LIEUS': 5.0, 'TENDUES': 8.0}",13,3,3.4000000000000004,5,7,6.6923076923076925,5,8.8,10
109,2,6,{'POILU': 7.0},1,7,7,7,7,7,7,7,7
109,2,7,{'HUN': 6},1,6,6,6,6,6,6,6,6
109,2,8,"{'RUT': 3, 'CEDRE': 8.0, 'RIDEES': 7.0, 'RIDEE': 6.0, 'HUN': 6, 'LIEUR': 5.0}",6,3,4,5.25,6,5.833333333333333,5.25,7.5,8
109,2,9,"{'PUTE': 6.0, 'ETENDUES': 9.0, 'ETENDU': 7.0, 'PUER': 6.0, 'RIDEE': 6.0, 'ETENDUE': 8.0, 'POILUE': 8.0, 'TENUE': 5.0, 'CEPE': 8.0, 'EVIDEES': 11.0, 'POILE': 7.0, 'LIEUR': 5.0, 'PURE': 6.0, 'LIEUE': 5.0, 'RIDEES': 7.0, 'CEDEE': 8.0, 'TER': 3, 'THUNE': 8.0, 'ETENDUS': 8.0, 'CEDRE': 8.0, 'PUEE': 6.0}",21,3,5,6,7,6.904761904761905,6,8,11
109,2,10,"{'PUTE': 6.0, 'ETENDUES': 9.0, 'ETENDU': 7.0, 'PUER': 6.0, 'RIDEE': 6.0, 'ETENDUE': 8.0, 'TENUE': 5.0, 'CEPE': 8.0, 'EVIDEES': 11.0, 'POILE': 7.0, 'LIEUR': 5.0, 'PURE': 6.0, 'LIEUE': 5.0, 'RIDEES': 7.0, 'CEDEE': 8.0, 'TER': 3, 'THUNE': 8.0, 'NET': 3, 'ETENDUS': 8.0, 'CEDRE': 8.0, 'PUEE': 6.0}",21,3,5,6,7,6.666666666666667,6,8,11
110,1,1,"{'INDU': 5, 'DIN': 4, 'DINAI': 3.5, 'DRU': 4, 'POSAI': 7.0, 'UNI': 3, 'SOIRS': 3.0, 'DINAR': 3.5, 'NAGER': 3.5, 'NID': 4, 'NUI': 3, 'NUERS': 5.0, 'NUAGE': 3.5, 'DUR': 4, 'UNIR': 4}",15,3,3,3.5,4,4,3.5,5,7
110,1,2,"{'DIN': 4, 'DINAI': 3.5, 'DRU': 4, 'INNU': 4, 'DINAR': 3.5, 'NAGER': 3.5, 'DUIT': 1.7999999999999998, 'UNI': 3, 'UNIR': 4, 'NUAGE': 3.5, 'DUR': 4, 'INDU': 5, 'POSAI': 7.0, 'NID': 4, 'SOIRS': 3.0, 'NUI': 3, 'NUERS': 5.0}",17,1.7999999999999998,3,3.5,4,3.8705882352941177,3.5,5,7
110,1,3,"{'NAGIEZ': 6.5, 'NAGEE': 3.5, 'SORES': 3.0, 'DINAI': 3.5, 'POSAI': 7.0, 'VOUES': 4.5, 'NUEES': 5.0, 'INNE': 4, 'DUIT': 1.7999999999999998, 'NIE': 3, 'DURE': 5.0}",11,1.7999999999999998,3,3.25,4,4.254545454545454,3.25,6.5,7
110,1,4,"{'NAGIEZ': 6.5, 'DINAI': 3.5, 'POSAI': 7.0, 'DUIT': 1.7999999999999998}",4,1.7999999999999998,2.31,3.075,5,4.7,3.075,6.85,7
110,1,5,"{'NAGIEZ': 6.5, 'DINAI': 3.5, 'POSAI': 7.0, 'DUIT': 1.7999999999999998}",4,1.7999999999999998,2.31,3.075,5,4.7,3.075,6.85,7
110,1,6,"{'NAGIEZ': 6.5, 'DUIT': 1.7999999999999998, 'FINN': 7, 'NIF': 6, 'DINAI': 3.5, 'FIN': 6}",6,1.7999999999999998,2.65,4.125,6,5.133333333333334,4.125,6.75,7
110,1,7,"{'NAGIEZ': 6.5, 'NIF': 6, 'FIN': 6, 'DUIT': 1.7999999999999998, 'FINN': 7}",5,1.7999999999999998,3.4800000000000004,6,6,5.46,6,6.800000000000001,7
110,1,8,"{'NAGIEZ': 6.5, 'FIN': 6, 'NIF': 6, 'DURAI': 5.3, 'DUIT': 1.7999999999999998, 'FINN': 7, 'DINKA': 12.5, 'KIF': 15}",8,1.7999999999999998,4.25,5.825,6.25,7.512499999999999,5.825,13.25,15
110,1,9,"{'STORES': 4.0, 'POSAIT': 8.0, 'DINAT': 3.5, 'FINIT': 7.1, 'SORTES': 4.0, 'DURAT': 5.3, 'POSAT': 7.0, 'POSTAI': 8.0, 'FINN': 7.0, 'SORTS': 3.0, 'DINKA': 12.5, 'POSTA': 7.0, 'DINAIT': 3.7}",13,3,3.54,4,7,6.161538461538462,4,8,12.5
110,1,10,"{'DURANT': 5.5, 'FINN': 7.0, 'NUERS': 5.0, 'NAGER': 3.5, 'FINIR': 7.1, 'DINKA': 12.5, 'DURER': 5.2}",7,3.5,4.4,5.1,5.5,6.542857142857144,5.1,9.260000000000002,12.5
110,2,1,"{'VENIN': 8, 'ORVAL': 8.0, 'VINE': 7, 'INNE': 4, 'NIE': 3, 'IVE': 6, 'VIE': 6, 'ORALE': 5.0, 'VIN': 6, 'TENUE': 3.0, 'CEDEE': 4.5, 'POILE': 4.0, 'ENVI': 7, 'LIEUE': 3.0, 'NIVE': 7, 'VIDEE': 9.0}",16,3,3,4,6,5.65625,4,8,9
110,2,2,"{'POILU': 4.0, 'POILUE': 4.5, 'VINE': 7.0}",3,4,4.1000000000000005,4.25,4.5,5.166666666666667,4.25,6.5,7
110,2,3,"{'POILU': 4.0, 'POILUE': 4.5}",2,4,4.05,4.125,4.25,4.25,4.125,4.449999999999999,4.5
110,2,4,{'POILU': 4.0},1,4,4,4,4,4,4,4,4
110,2,5,"{'UNI': 3, 'NUI': 3}",2,3,3,3,3,3,3,3,3
110,2,6,"{'NIE': 3, 'ORALE': 5.0, 'CEDEES': 4.7, 'UNI': 3, 'VEINE': 8.0, 'CEDEE': 4.5, 'MORALE': 5.4, 'UNE': 3, 'NUI': 3, 'VINEE': 8.0, 'LIEUE': 3.0, 'NUE': 3, 'POILEE': 4.5, 'UNIE': 4}",14,3,3,3,4.25,4.435714285714285,3,7.220000000000002,8
110,2,7,"{'INDU': 5, 'DIN': 4, 'VIDE': 8.0, 'TENDU': 4.0, 'NID': 4, 'NUI': 3, 'UNI': 3, 'TENDUE': 4.2}",8,3,3,3.75,4,4.4,3.75,5.8999999999999995,8
110,2,8,"{'INDU': 5, 'TENDU': 4.0, 'DIN': 4, 'NUI': 3, 'UNI': 3, 'NID': 4, 'TENDUE': 4.2}",7,3,3,3.5,4,3.8857142857142857,3.5,4.5200000000000005,5
110,2,9,"{'AIDEE': 6.0, 'TENDU': 4.0, 'AVINE': 8.0, 'POILERA': 5.0, 'AMORAL': 5.4, 'VAINE': 8.0, 'ALUNE': 2.2, 'AMORALE': 6.4, 'AVIDE': 9.0, 'POILA': 4.0, 'NUAI': 4.0, 'TENDUE': 4.2}",12,2.2,4,4,5.2,5.516666666666667,4,8,9
110,2,10,"{'TENDU': 4.0, 'TENDUE': 4.2}",2,4,4.0200000000000005,4.05,4.1,4.1,4.05,4.18,4.2
111,1,1,"{'POSAT': 4.0, 'MUT': 4, 'ZUT': 12, 'DINAT': 3.5, 'NUAGE': 6.0, 'NAGEZ': 15.0, 'DUT': 4, 'SORTS': 3.0, 'POSTA': 4.0}",9,3,3.4000000000000004,4,4,6.166666666666667,4,12.6,15
111,1,2,"{'NUEES': 3.0, 'NAGEE': 6.0, 'SORES': 3.0, 'DURE': 3.0, 'NAGEZ': 15.0, 'VOUES': 8.0}",6,3,3,3,4.5,6.333333333333333,3,11.5,15
111,1,3,"{'NUEES': 3.0, 'VOUAS': 8.0, 'NAGEE': 6.0, 'NAGEA': 6.0, 'DURE': 3.0, 'AME': 4, 'DURA': 3.0, 'VOUES': 8.0}",8,3,3,3,5,5.125,3,8,8
111,1,4,"{'DINAS': 3.5, 'NAGEA': 6.0, 'MAS': 4, 'VOUAS': 8.0, 'POSAS': 4.0, 'NAGES': 6.0, 'DURS': 3.0, 'DURES': 4.0, 'DURA': 3.0}",9,3,3,3.5,4,4.611111111111111,3.5,6.4,8
111,1,5,"{'DINAS': 3.5, 'NAGEA': 6.0, 'MAS': 4, 'VOUAS': 8.0, 'NAGEAS': 7.0, 'DURS': 3.0, 'POSAS': 4.0, 'DURES': 4.0, 'POSAIS': 4.5, 'DURA': 3.0}",10,3,3,3.625,4,4.7,3.625,7.1,8
111,1,6,"{'NAGIEZ': 16.0, 'NAGEA': 6.0, 'VOUAS': 8.0, 'DUIT': 5.0, 'DURAS': 4.0, 'NAGEAS': 7.0, 'DINAI': 3.5, 'AMI': 4, 'MAI': 4, 'DURA': 3.0}",10,3,3.4499999999999997,4,4.5,6.05,4,8.799999999999997,16
111,1,7,"{'DURAS': 4.0, 'NAGEAS': 7.0, 'VOUAS': 8.0, 'DURA': 3.0, 'NAGEA': 6.0}",5,3,3.4,4,6,5.6,4,7.6,8
111,1,8,"{'FINI': 2.8, 'NAGIEZ': 16.0, 'DURAI': 4.0, 'DUIT': 5.0}",4,2.8,3.16,3.7,4.5,6.95,3.7,12.700000000000005,16
111,1,9,"{'STORES': 3.0, 'FINIT': 3.8, 'SORTES': 3.0, 'DURAT': 4.0, 'POSAT': 4.0, 'POSTAI': 4.5, 'DINAT': 3.5, 'SORTS': 3.0, 'POSTAIT': 4.8, 'POSTA': 4.0, 'DINAIT': 4.5}",11,3,3,3.25,4,3.827272727272728,3.25,4.5,4.8
111,1,10,"{'DINAS': 3.5, 'DURAS': 4.0, 'DINARS': 4.1, 'DINAIS': 4.5, 'FINIS': 3.8, 'FINS': 2.8, 'POSAS': 4.0, 'DURES': 4.0, 'POSAIS': 4.5}",9,2.8,3.3600000000000003,3.8,4,3.911111111111111,3.8,4.5,4.5
111,2,1,"{'IODEE': 3.5, 'MEOS': 5, 'VOIE': 2.2, 'VISE': 2.2, 'OYE': 12, 'CEDEE': 8.0, 'OYES': 13, 'MOS': 4, 'MOYE': 14, 'MOYES': 15, 'POILS': 4.0, 'ORALE': 3.0, 'OSE': 3, 'MYES': 14, 'SOM': 4, 'TENUE': 5.0, 'LIEUS': 3.0, 'POILE': 4.0, 'IDEES': 3.5, 'CEDES': 8.0, 'MORAL': 4.0, 'MES': 4, 'TENUS': 5.0, 'LIEUE': 3.0, 'VIES': 2.2, 'MYE': 13, 'MEO': 4}",27,2.2,2.68,3.25,4,6.133333333333333,3.25,13.400000000000002,15
111,2,2,"{'MOYE': 14, 'VOIE': 2.2, 'IODEE': 3.5, 'ORALE': 3.0, 'MOI': 4, 'OIE': 3, 'CEDEES': 9.0, 'MIE': 4, 'MOIE': 5, 'TENUE': 5.0, 'CEDEE': 8.0, 'OVINE': 2.4000000000000004, 'MORAL': 4.0, 'VEINE': 2.4000000000000004, 'EMOI': 5, 'VINEE': 2.4000000000000004, 'LIEUE': 3.0, 'OYE': 12, 'POILEE': 4.5, 'MEO': 4, 'MYE': 13}",21,2.2,2.4000000000000004,3,4,5.3999999999999995,3,12,14
111,2,3,"{'OVINE': 2.4000000000000004, 'VOIE': 2.2, 'MORAL': 4.0, 'MOI': 4, 'IODEE': 3.5}",5,2.2,2.28,2.4000000000000004,3.5,3.22,2.4000000000000004,4,4
111,2,4,"{'OVINE': 2.4000000000000004, 'VOIE': 2.2, 'MORAL': 4.0, 'MOI': 4, 'IODEE': 3.5}",5,2.2,2.28,2.4000000000000004,3.5,3.22,2.4000000000000004,4,4
111,2,5,"{'ORVAL': 6.0, 'OVINE': 2.4000000000000004, 'VOMI': 8, 'VIVE': 5.2, 'IODEE': 3.5, 'MORAL': 4.0, 'VOIE': 2.2, 'MOI': 4, 'VIDEE': 6.5}",9,2.2,2.3600000000000003,3.5,4,4.644444444444444,3.5,6.800000000000001,8
111,2,6,"{'IVE': 6, 'VOIE': 7, 'VIVE': 5.2, 'VIE': 6, 'IODEE': 3.5, 'ORALE': 3.0, 'ORVAL': 6.0, 'OIE': 3, 'CEDEES': 9.0, 'VEINE': 2.4000000000000004, 'CEDEE': 8.0, 'OVINE': 2.4000000000000004, 'OVE': 6, 'VINEE': 2.4000000000000004, 'LIEUE': 3.0, 'OYE': 12, 'POILEE': 4.5, 'VIDEE': 6.5}",18,2.4000000000000004,2.4000000000000004,3,5.6,5.327777777777778,3,8.3,12
111,2,7,"{'VOIE': 2.2, 'OVIDE': 2.5999999999999996, 'EVIDE': 2.5999999999999996, 'IODEE': 3.5, 'ORALE': 3.0, 'EVIDEE': 7.5, 'CEDEES': 9.0, 'VEINE': 2.4000000000000004, 'CEDEE': 8.0, 'YEYE': 22, 'OVINE': 2.4000000000000004, 'VIDEO': 2.5999999999999996, 'LUNEE': 2.2, 'VINEE': 2.4000000000000004, 'LIEUE': 3.0, 'OYE': 12, 'POILEE': 4.5, 'OIE': 3}",18,2.2,2.3400000000000003,2.45,3,5.272222222222222,2.45,9.900000000000002,22
111,2,8,"{'VOIE': 2.2, 'OVIDE': 2.5999999999999996, 'EVIDE': 2.5999999999999996, 'IODEE': 3.5, 'EVIDEE': 7.5, 'CEDEES': 9.0, 'VEINE': 2.4000000000000004, 'CEDEE': 8.0, 'OVINE': 2.4000000000000004, 'VIDEO': 2.5999999999999996, 'LUNEE': 2.2, 'VINEE': 2.4000000000000004, 'LIEUE': 3.0, 'OYE': 12, 'POILEE': 4.5, 'OIE': 3}",16,2.2,2.3000000000000003,2.4000000000000004,2.8,4.36875,2.4000000000000004,8.5,12
111,2,9,"{'VOIE': 2.2, 'OVIDE': 2.5999999999999996, 'EVIDE': 2.5999999999999996, 'IODEE': 3.5, 'POILEE': 4.5, 'EVIDEE': 7.5, 'CEDEES': 9.0, 'VEINE': 2.4000000000000004, 'CEDEE': 8.0, 'OVINE': 2.4000000000000004, 'VIDEO': 2.5999999999999996, 'LUNEE': 2.2, 'VINEE': 2.4000000000000004, 'LIEUE': 3.0, 'OYE': 12, 'POILAI': 4.2, 'OIE': 3}",17,2.2,2.3200000000000003,2.4000000000000004,3,4.358823529411764,2.4000000000000004,8.4,12
111,2,10,"{'RYE': 12, 'OVIDE': 2.5999999999999996, 'EVIDE': 2.5999999999999996, 'IODEE': 3.5, 'EVIDEE': 7.5, 'VOIE': 2.2, 'VEINE': 2.4000000000000004, 'VINER': 2.4000000000000004, 'VINEE': 2.4000000000000004, 'LIEUR': 3.0, 'CEDRE': 8.0, 'VIRE': 2.2, 'OYE': 12, 'POILEE': 4.5, 'IRE': 3, 'ROI': 3, 'ORE': 3, 'VIDER': 2.5999999999999996, 'OIE': 3, 'CEDEES': 9.0, 'CEDRES': 9.0, 'POILAI': 4.2, 'CEDEE': 8.0, 'RIO': 3, 'OVINE': 2.4000000000000004, 'VIDEO': 2.5999999999999996, 'LUNEE': 2.2, 'TENURE': 6.0, 'CEDER': 8.0, 'LIEUE': 3.0, 'RIE': 3, 'RIDEE': 3.5}",32,2.2,2.4000000000000004,2.5999999999999996,3,4.5562499999999995,2.5999999999999996,8.900000000000002,12
112,1,1,"{'IVE': 6, 'NAGEE': 3.5, 'VIE': 6, 'SORES': 5.0, 'DINAI': 6.0, 'EMIE': 5, 'POSAI': 4.0, 'SOIRS': 5.0, 'EVE': 6, 'NUEES': 3.0, 'DUIT': 1.7999999999999998, 'VOUES': 4.5, 'MIE': 4}",13,1.7999999999999998,3.1,4,5,4.6,4,6,6
112,1,2,"{'NAGEE': 3.5, 'DINAI': 6.0, 'MIE': 4, 'EVE': 6, 'NUEES': 3.0, 'DUIT': 1.7999999999999998, 'VOUES': 4.5, 'NAGIEZ': 6.5, 'IVE': 6, 'VIE': 6, 'SORES': 5.0, 'EMIE': 5, 'POSAI': 4.0, 'SOIRS': 5.0, 'EMIEE': 6, 'DURE': 3.0}",16,1.7999999999999998,3,3.875,5,4.70625,3.875,6,6.5
112,1,3,"{'NUEES': 3.0, 'VOUAS': 4.5, 'NAGEE': 3.5, 'NAGEA': 3.5, 'AVE': 6, 'DUREE': 3.2, 'AME': 4, 'EVE': 6, 'DURA': 3.0, 'VOUES': 4.5}",10,3,3,3.2750000000000004,3.75,4.12,3.2750000000000004,6,6
112,1,4,"{'NAGEA': 3.5, 'NAGEE': 3.5, 'REVE': 7, 'EVE': 6, 'DURA': 3.0, 'ERE': 3, 'NAGER': 3.5, 'REM': 4, 'RAVE': 7, 'REA': 3, 'MERE': 5, 'REE': 3, 'AMER': 5, 'REVA': 7, 'MAREE': 6, 'RAM': 4, 'AME': 4, 'VOUES': 4.5, 'RAMEE': 6, 'NUERS': 3.0, 'RAME': 5, 'ARME': 5, 'ARMEE': 6, 'AERE': 4, 'VER': 6, 'REVEE': 8, 'AEREE': 5, 'DINAR': 6.0, 'VOUAS': 4.5, 'NAGEES': 3.8, 'VAR': 6, 'NAGEAS': 3.8, 'AMERE': 6, 'MARE': 5, 'NUEES': 3.0, 'DUREE': 3.2, 'AVERE': 8, 'ARE': 3, 'MER': 4, 'AVE': 6, 'DURER': 3.2}",41,3,3,3.5,4.5,4.7682926829268295,3.5,7,8
112,1,5,"{'NAGEA': 3.5, 'NAGEE': 3.5, 'REVE': 7, 'EVE': 6, 'DURA': 3.0, 'ERE': 3, 'NAGER': 3.5, 'REM': 4, 'RAVE': 7, 'REA': 3, 'MERE': 5, 'REE': 3, 'AMER': 5, 'REVA': 7, 'MAREE': 6, 'RAM': 4, 'AME': 4, 'VOUES': 4.5, 'RAMEE': 6, 'NUERS': 3.0, 'RAME': 5, 'ARME': 5, 'ARMEE': 6, 'AERE': 4, 'VER': 6, 'REVEE': 8, 'DURAS': 3.3, 'AEREE': 5, 'DINAR': 6.0, 'VOUAS': 4.5, 'NAGEES': 3.8, 'VAR': 6, 'NAGEAS': 3.8, 'AMERE': 6, 'MARE': 5, 'NUEES': 3.0, 'DUREE': 3.2, 'AVERE': 8, 'ARE': 3, 'MER': 4, 'AVE': 6, 'DURES': 3.3, 'DURER': 3.2}",43,3,3,3.4,4.5,4.7,3.4,6.800000000000004,8
112,1,6,"{'NAGEA': 3.5, 'NAGEE': 3.5, 'DURAS': 3.3, 'DUREE': 3.2, 'AME': 4, 'EVE': 6, 'DURA': 3.0, 'VOUES': 4.5, 'NUEES': 3.0, 'VOUAS': 4.5, 'NAGEES': 3.8, 'AVE': 6, 'NAGEAS': 3.8, 'DURES': 3.3}",14,3,3.0599999999999996,3.3,3.65,3.957142857142856,3.3,5.550000000000002,6
112,1,7,"{'NAGEA': 3.5, 'NAGEE': 3.5, 'VELE': 7, 'EVE': 6, 'VELA': 7, 'ALMEE': 6, 'ALEM': 5, 'LAMEE': 6, 'AME': 4, 'VOUES': 4.5, 'MALE': 5, 'LAVEE': 8, 'LAVE': 7, 'VAL': 6, 'DURAS': 3.3, 'LEVEE': 8, 'NUEES': 3.0, 'ELEVA': 8, 'VOUAS': 4.5, 'NAGEES': 3.8, 'ELEVE': 8, 'DURAL': 3.3, 'NAGEAS': 3.8, 'LEVA': 7, 'LEVE': 7, 'LAME': 5, 'MEL': 4, 'DUREE': 3.2, 'ALE': 3, 'LEM': 4, 'MAL': 4, 'MELEE': 6, 'LEV': 6, 'AVE': 6, 'MELA': 5, 'DURES': 3.3, 'ELAVE': 8, 'MELE': 5}",38,3,3.3,3.85,5,5.281578947368422,3.85,8,8
112,1,8,"{'NAGEA': 3.5, 'NAGEE': 3.5, 'VELE': 7, 'EVE': 6, 'VELA': 7, 'AFIN': 2.8, 'ALMEE': 6, 'FINE': 2.8, 'ALEM': 5, 'LAMEE': 6, 'AME': 4, 'VOUES': 4.5, 'MALE': 5, 'LAVEE': 8, 'LAVE': 7, 'VAL': 6, 'DURAS': 3.3, 'LEVEE': 8, 'NUEES': 3.0, 'ELEVA': 8, 'VOUAS': 4.5, 'NAGEES': 3.8, 'ELEVE': 8, 'DURAL': 3.3, 'NAGEAS': 3.8, 'LEVA': 7, 'LEVE': 7, 'LAME': 5, 'DURES': 3.3, 'DUREE': 3.2, 'ALE': 3, 'LEM': 4, 'MAL': 4, 'MELEE': 6, 'LEV': 6, 'MEL': 4, 'AVE': 6, 'MELA': 5, 'FINIE': 2.9000000000000004, 'ELAVE': 8, 'MELE': 5}",41,2.8,3,3.5,5,5.102439024390244,3.5,8,8
112,1,9,"{'NAGEA': 3.5, 'NAGEE': 3.5, 'VELE': 7, 'EVE': 6, 'VELA': 7, 'VELLE': 8, 'AFIN': 2.8, 'ALMEE': 6, 'FINE': 2.8, 'ALLE': 4, 'ALEM': 5, 'LAMEE': 6, 'AME': 4, 'VOUES': 4.5, 'ALLEE': 5, 'MALE': 5, 'LAVEE': 8, 'LAVE': 7, 'VAL': 6, 'DURAS': 3.3, 'LEVEE': 8, 'NUEES': 3.0, 'ELEVA': 8, 'VOUAS': 4.5, 'NAGEES': 3.8, 'ELEVE': 8, 'DURAL': 3.3, 'NAGEAS': 3.8, 'LEVA': 7, 'LEVE': 7, 'MALLE': 6, 'LAME': 5, 'DURES': 3.3, 'DUREE': 3.2, 'ALE': 3, 'LEM': 4, 'MAL': 4, 'MELEE': 6, 'ELLE': 4, 'LEV': 6, 'MEL': 4, 'AVE': 6, 'MELA': 5, 'FINIE': 2.9000000000000004, 'ELAVE': 8, 'MELE': 5}",46,2.8,3.1,3.8,5,5.1347826086956525,3.8,8,8
112,1,10,"{'VELIE': 8, 'NAGEA': 3.5, 'ILE': 3, 'NAGEE': 3.5, 'LIE': 3, 'VELE': 7, 'MIE': 4, 'FINIRA': 3.0999999999999996, 'VELA': 7, 'EMIEE': 6, 'LIMEE': 6, 'DUIT': 1.7999999999999998, 'DURAIT': 3.5, 'EMAIL': 6, 'MIL': 4, 'ALLE': 4, 'EMIA': 5, 'LAMEE': 6, 'MELAI': 6, 'EMIE': 5, 'AILEE': 5, 'ALMEE': 6, 'LIVE': 7, 'AIME': 5, 'LAVEE': 8, 'VIELE': 8, 'AIE': 3, 'VAL': 6, 'MELIA': 6, 'ILEAL': 5, 'ELLE': 4, 'NUEES': 3.0, 'VOUAS': 4.5, 'NAGEES': 3.8, 'LEVAI': 8, 'NAGEAS': 3.8, 'MILLE': 6, 'VILLA': 8, 'NAGIEZ': 6.5, 'VILLE': 8, 'VIA': 6, 'LAI': 3, 'VIE': 6, 'MEL': 4, 'ELAVE': 8, 'ALE': 3, 'LEM': 4, 'VIL': 6, 'MAIE': 5, 'ALEM': 5, 'LEV': 6, 'AILE': 4, 'MAI': 4, 'MAIL': 5, 'MAL': 4, 'FINIES': 3.0999999999999996, 'ELIE': 4, 'ELIA': 4, 'ALEVI': 8, 'EVE': 6, 'ELIEE': 5, 'AIL': 3, 'VELLE': 8, 'AFIN': 2.8, 'FINE': 2.8, 'AMI': 4, 'ELIMA': 6, 'MIEL': 5, 'ELIME': 6, 'AME': 4, 'AILLE': 5, 'VOUES': 4.5, 'ALLEE': 5, 'ELEVA': 8, 'MALI': 5, 'MALE': 5, 'ALLIE': 5, 'EVEIL': 8, 'VILE': 7, 'LIEE': 4, 'DURAS': 3.3, 'ELEMI': 6, 'LAMIE': 6, 'LEI': 3, 'DURAI': 3.3, 'MILE': 5, 'LAVE': 7, 'LEVEE': 8, 'ELEVE': 8, 'DURAL': 3.3, 'LEVA': 7, 'LIMA': 5, 'LEVE': 7, 'LIME': 5, 'IVE': 6, 'MALLE': 6, 'LAME': 5, 'AMIE': 5, 'DURES': 3.3, 'DUREE': 3.2, 'LIA': 3, 'VELAI': 8, 'MELEE': 6, 'LAIE': 4, 'AIMEE': 6, 'AVE': 6, 'MELA': 5, 'FINIE': 2.9000000000000004, 'MELE': 5}",109,1.7999999999999998,3,4,5,5.160550458715595,4,8,8
112,2,1,"{'OGRE': 5, 'GROLE': 6, 'REGLO': 6, 'VOIE': 2.2, 'LOGER': 6, 'ERG': 4, 'EGO': 4, 'IDEEL': 3.5, 'REG': 4, 'LOG': 4, 'OLE': 3, 'TENUE': 3.0, 'ORGE': 5, 'POILE': 7.0, 'ERGOL': 6, 'GEO': 4, 'GEL': 4, 'VILE': 2.2, 'IODEE': 3.5, 'RIDEE': 3.5, 'ORLE': 4, 'LOGE': 5, 'GORE': 5, 'CEDRE': 4.5, 'VIRE': 2.2, 'LEGO': 5, 'ORALE': 3.0, 'CEDEES': 4.7, 'CEDRES': 4.7, 'LIEUR': 5.0, 'CEDEE': 4.5, 'GRE': 4, 'ROLE': 4, 'CEDER': 4.5, 'LIEUE': 5.0, 'ORE': 3}",36,2.2,3,3.5,4,4.277777777777778,3.5,6,7
112,2,2,"{'POILER': 8.0, 'OGRE': 5, 'VILE': 2.2, 'IODEE': 3.5, 'REGLO': 6, 'RIDEE': 3.5, 'VOIE': 2.2, 'VEINE': 2.4000000000000004, 'VINER': 2.4000000000000004, 'VINEE': 2.4000000000000004, 'GORE': 5, 'ERG': 4, 'EGO': 4, 'IDEEL': 3.5, 'CEDRE': 4.5, 'VIRE': 2.2, 'GROLE': 6, 'ORGE': 5, 'POILEE': 8.0, 'REG': 4, 'GRE': 4, 'OLE': 3, 'LEGO': 5, 'ORALE': 3.0, 'LOG': 4, 'CEDEES': 4.7, 'CEDRES': 4.7, 'LOGER': 6, 'LIEUR': 5.0, 'CEDEE': 4.5, 'ORLE': 4, 'OVINE': 2.4000000000000004, 'LOGE': 5, 'VIGNE': 3.4000000000000004, 'TENURE': 3.2, 'CEDER': 4.5, 'LIEUE': 5.0, 'ERGOL': 6, 'ORE': 3, 'GEO': 4, 'ROLE': 4, 'GEL': 4}",42,2.2,2.4000000000000004,3.2500000000000004,4,4.1952380952380945,3.2500000000000004,6,8
112,2,3,"{'NEO': 3, 'GNOLE': 6, 'GON': 4, 'LOG': 4, 'VILE': 2.2, 'IODEE': 3.5, 'LONE': 4, 'VOIE': 2.2, 'EON': 3, 'VEINE': 2.4000000000000004, 'ONGLE': 6, 'LOGE': 5, 'EGO': 4, 'LONG': 5, 'VINEE': 2.4000000000000004, 'POILEE': 8.0, 'OLE': 3, 'LEGO': 5, 'ORALE': 3.0, 'GEO': 4, 'CEDEES': 4.7, 'ENOL': 4, 'IDEEL': 3.5, 'CEDEE': 4.5, 'OVINE': 2.4000000000000004, 'VIGNE': 3.4000000000000004, 'NOEL': 4, 'LIEUE': 5.0, 'GONE': 5, 'LONGE': 6, 'GEL': 4}",31,2.2,2.4000000000000004,3,4,4.070967741935484,3,6,8
112,2,4,"{'NEO': 3, 'GNOLE': 6, 'NEM': 4, 'LOG': 4, 'GONE': 5, 'ENOL': 4, 'VOIE': 2.2, 'GOLEM': 7, 'EON': 3, 'ONGLE': 6, 'GLOME': 7, 'EGO': 4, 'LONG': 5, 'VINEE': 2.4000000000000004, 'POILEE': 8.0, 'MOLE': 5, 'OLE': 3, 'LONE': 4, 'IDEEL': 3.5, 'OVINE': 2.4000000000000004, 'VIGNE': 3.4000000000000004, 'GEO': 4, 'LONGE': 6, 'MON': 4, 'GON': 4, 'GNOME': 7, 'VILE': 2.2, 'IODEE': 3.5, 'VEINE': 2.4000000000000004, 'LOGE': 5, 'MELON': 6, 'NOME': 5, 'NOM': 4, 'LEGO': 5, 'ORALE': 3.0, 'MEL': 4, 'MEO': 4, 'CEDEES': 4.7, 'LEM': 4, 'CEDEE': 4.5, 'MORAL': 4.0, 'MELO': 5, 'NOEL': 4, 'MOL': 4, 'LIEUE': 5.0, 'GEL': 4, 'MONEL': 6}",47,2.2,2.7600000000000007,3.75,4,4.3872340425531915,3.75,6,8
112,2,5,"{'NEO': 3, 'NEM': 4, 'LUMEN': 6, 'GONE': 5, 'ENOL': 4, 'VOIE': 2.2, 'EON': 3, 'MUE': 4, 'MUG': 5, 'NOME': 5, 'EGO': 4, 'LUE': 3, 'GOUM': 6, 'POILEE': 8.0, 'GLU': 4, 'LUO': 3, 'OLE': 3, 'LONE': 4, 'NUL': 3, 'IDEEL': 3.5, 'NOUE': 4, 'MUGE': 6, 'GLUON': 6, 'NUE': 3, 'GNOU': 5, 'GNOME': 7, 'MOUE': 5, 'IODEE': 3.5, 'GENOU': 6, 'LOGE': 5, 'UNE': 3, 'MELON': 6, 'ELU': 3, 'LEGO': 5, 'MENU': 5, 'MEO': 4, 'NOM': 4, 'LEM': 4, 'CEDEE': 4.5, 'LEU': 3, 'NOEL': 4, 'MEL': 4, 'LIEUE': 5.0, 'GEL': 4, 'MONEL': 6, 'LUGE': 5, 'GNOLE': 6, 'LOG': 4, 'GUE': 4, 'MULON': 6, 'EMOU': 5, 'GOLEM': 7, 'MULE': 5, 'EMU': 4, 'ONGLE': 6, 'GLOME': 7, 'VINEE': 2.4000000000000004, 'GLUE': 5, 'MOLE': 5, 'MUNGO': 7, 'OVINE': 2.4000000000000004, 'VIGNE': 3.4000000000000004, 'GEO': 4, 'LONGE': 6, 'MON': 4, 'MUON': 5, 'GON': 4, 'GLUME': 7, 'VILE': 2.2, 'VEINE': 2.4000000000000004, 'MORALE': 3.4, 'LOGUE': 6, 'LUNE': 4, 'GOULE': 6, 'MOULE': 6, 'ORALE': 3.0, 'CEDEES': 4.7, 'MOU': 4, 'LOUE': 4, 'MELO': 5, 'MOL': 4, 'LONG': 5, 'OLEUM': 6}",83,2.2,3,4,4,4.549397590361446,4,6,8
112,2,6,"{'GAMOU': 7, 'GONE': 5, 'AGE': 4, 'VOIE': 2.2, 'EON': 3, 'EGO': 4, 'GOUM': 6, 'POILERA': 9.0, 'ALUN': 4, 'MEGA': 6, 'LANGE': 6, 'IDEEL': 3.5, 'MENA': 5, 'LAME': 5, 'GLUON': 6, 'GNOU': 5, 'GNOME': 7, 'MOUE': 5, 'IODEE': 3.5, 'LOGE': 5, 'LOUMA': 6, 'GLENA': 6, 'LAO': 3, 'GAULE': 6, 'MENU': 5, 'LEGO': 5, 'LAGON': 6, 'CEDEE': 4.5, 'ALEM': 5, 'MALON': 6, 'MONEL': 6, 'MEO': 4, 'MAO': 4, 'MAN': 4, 'LOGEA': 6, 'GUE': 4, 'MUON': 5, 'MULON': 6, 'GUEA': 5, 'GOLEM': 7, 'ULEMA': 6, 'EMU': 4, 'GLUE': 5, 'ELAN': 4, 'LUMA': 5, 'AUNE': 4, 'MUNGO': 7, 'AME': 4, 'ANE': 3, 'OVINE': 2.4000000000000004, 'POILA': 7.0, 'AULNE': 5, 'MALE': 5, 'GEO': 4, 'MAUL': 5, 'LONGE': 6, 'GEL': 4, 'EGAL': 5, 'VILE': 2.2, 'MANOU': 6, 'VEINE': 2.4000000000000004, 'LOGUA': 6, 'LOGUE': 6, 'LUNE': 4, 'MAGE': 6, 'ANGE': 5, 'MEULA': 6, 'MOU': 4, 'LUGE': 5, 'LOUE': 4, 'MAGNE': 7, 'MON': 4, 'MOL': 4, 'GENAL': 6, 'MOA': 4, 'MELA': 5, 'ULNA': 4, 'NEO': 3, 'NEM': 4, 'LONE': 4, 'MUE': 4, 'MUG': 5, 'MANGO': 7, 'MUA': 4, 'LUE': 3, 'MANGE': 7, 'POILEE': 8.0, 'GLU': 4, 'LUO': 3, 'OLA': 3, 'OLE': 3, 'AMORAL': 3.4, 'NOUA': 4, 'ENOL': 4, 'NUL': 3, 'NOUE': 4, 'GLANE': 6, 'MUGE': 6, 'NUE': 3, 'OMEGA': 7, 'EMOU': 5, 'NUA': 3, 'AGNEL': 6, 'GLOME': 7, 'NOM': 4, 'AMORALE': 3.5999999999999996, 'AUGE': 5, 'GENOU': 6, 'ELUA': 4, 'UNE': 3, 'MELON': 6, 'ELU': 3, 'NOMA': 5, 'GOAL': 5, 'NOME': 5, 'MEL': 4, 'VAINE': 2.4000000000000004, 'ALE': 3, 'LEM': 4, 'ANEL': 4, 'GELA': 5, 'LEU': 3, 'NOEL': 4, 'LIEUE': 5.0, 'ALU': 3, 'GNOLE': 6, 'LOA': 3, 'ANGLE': 6, 'LOG': 4, 'AMEN': 5, 'EVIDEE': 3.9000000000000004, 'MULE': 5, 'ONGLE': 6, 'GALON': 6, 'ENOUA': 5, 'VINEE': 2.4000000000000004, 'LEGUA': 6, 'MOLE': 5, 'AIDEE': 3.5, 'EMULA': 6, 'GUANO': 6, 'MAL': 4, 'GAN': 4, 'ALUNE': 5, 'GAL': 4, 'VIGNE': 3.4000000000000004, 'GLUA': 5, 'EAU': 3, 'MELO': 5, 'ALGUE': 6, 'GON': 4, 'AVINE': 2.4000000000000004, 'GLUME': 7, 'NAGE': 5, 'LUMEN': 6, 'GOULE': 6, 'NUAGE': 6, 'MOULE': 6, 'MOULA': 6, 'GALE': 5, 'ORALE': 3.0, 'CEDEES': 4.7, 'LUGEA': 6, 'OGAM': 6, 'LOUA': 4, 'LONG': 5, 'OLEUM': 6, 'GENA': 5}",168,2.2,3,4,5,4.776190476190477,4,6,9
112,2,7,"{'AMIGO': 7, 'IMAGO': 7, 'AVINE': 2.4000000000000004, 'AGI': 4, 'AIDEE': 3.5, 'AMORALE': 3.5999999999999996, 'MOI': 4, 'VOIE': 2.2, 'VIGNE': 3.4000000000000004, 'AGIO': 5, 'OVIDE': 2.5999999999999996, 'GOI': 4, 'AMI': 4, 'POILERA': 9.0, 'MOAI': 5, 'AMORAL': 3.4, 'GOIM': 6, 'VAINE': 2.4000000000000004, 'IODEE': 3.5, 'OVINE': 2.4000000000000004, 'AVIDE': 2.5999999999999996, 'POILA': 7.0, 'GAI': 4, 'MAI': 4, 'VIDEO': 2.5999999999999996, 'MOA': 4, 'OGAM': 6, 'MAO': 4, 'ALUNE': 5.0}",29,2.2,2.4000000000000004,3.4,4,4.2620689655172415,3.4,7,9
112,2,8,"{'NUIT': 1.6, 'VIET': 2.2, 'VITE': 2.2}",3,1.6,1.7200000000000002,1.9,2.2,2,1.9,2.2,2.2
112,2,9,"{'NUIT': 1.6, 'POILAI': 7.2, 'VIET': 2.2, 'VITE': 2.2, 'POILAT': 7.2}",5,1.6,1.84,2.2,2.2,4.08,2.2,7.200000000000001,7.2
112,2,10,"{'VIET': 2.2, 'TIN': 3, 'NIT': 3, 'POILAT': 7.2, 'POILAI': 7.2, 'NUIT': 1.6, 'VITE': 2.2}",7,1.6,1.96,2.2,3,3.7714285714285714,2.2,7.2,7.2
113,1,1,"{'NUEES': 5.0, 'VOUAS': 4.5, 'NAGEE': 3.5, 'NAGEA': 3.5, 'SORES': 3.0, 'VOUES': 4.5}",6,3,3.25,3.5,4,4,3.5,4.75,5
113,1,2,"{'NAGEA': 3.5, 'AMES': 2.6, 'VOUAS': 4.5, 'MESA': 2.6}",4,2.6,2.6,2.6,3.05,3.3,2.6,4.2,4.5
113,1,3,"{'NAGEA': 3.5, 'MESA': 2.6, 'PAMES': 5.6, 'JAB': 12, 'VOUAS': 4.5}",5,2.6,2.96,3.5,4.5,5.64,3.5,9.44,12
113,1,4,"{'NAGEA': 3.5, 'NAJA': 11, 'ANA': 3, 'PAMES': 5.6, 'MENS': 2.6, 'JAN': 10, 'PANA': 6, 'VOUAS': 4.5, 'BAN': 5, 'HUAMES': 6.6, 'MESA': 2.6, 'JAB': 12, 'HUNE': 5.8, 'PAN': 5}",14,2.6,2.72,3.75,5.3,5.942857142857143,3.75,10.7,12
113,1,5,"{'NAGEA': 3.5, 'VOUAS': 4.5, 'MUES': 2.6, 'PUJA': 13, 'NUAGE': 3.5, 'MESA': 2.6, 'PAMES': 5.6, 'HUAMES': 6.6, 'MEUS': 2.6, 'PUA': 5}",10,2.6,2.6,2.825,4,4.95,2.825,7.239999999999997,13
113,1,6,"{'NAGEA': 3.5, 'PUAMES': 6.6, 'MELS': 2.6, 'PALMES': 6.6, 'MEUS': 2.6, 'PAUMES': 6.6, 'VOUAS': 4.5, 'MUES': 2.6, 'NUAGE': 3.5, 'MESA': 2.6, 'ALU': 3, 'HUAMES': 6.6, 'LAMES': 3.6}",13,2.6,2.6,2.6,3.5,4.223076923076923,2.6,6.6,6.6
113,1,7,"{'NAGEA': 3.5, 'CHUE': 7.8, 'CLAMES': 5.6, 'MELS': 2.6, 'PALMES': 6.6, 'CHUMES': 8.6, 'LAC': 5, 'ACMES': 5.6, 'CAMES': 5.6, 'VOUAS': 4.5, 'BANC': 8.0, 'CAL': 5, 'MECS': 4.6, 'MESA': 2.6, 'HUAMES': 6.6}",15,2.6,2.96,4.55,5.6,5.4799999999999995,4.55,7.92,8.6
113,1,8,"{'MESA': 2.6, 'NAGEA': 3.5, 'AIMES': 3.6, 'LAI': 3, 'MELS': 2.6, 'LIA': 3, 'LAMIES': 3.6, 'HUAMES': 6.6, 'AIL': 3, 'AMIES': 3.6, 'VOUAS': 4.5, 'PALIMES': 7.5, 'MIES': 2.6, 'SOIRS': 3.0, 'LIAMES': 3.6, 'BAIN': 6.0, 'BLANC': 9.0}",17,2.6,2.6,3,3.6,4.194117647058824,3,6.96,9
113,1,9,"{'NUAGE': 3.5, 'MEUS': 2.6, 'PUAMES': 6.6, 'MUES': 2.6}",4,2.6,2.6,2.6,3.05,3.825,2.6,5.67,6.6
113,1,10,"{'CHUE': 7.8, 'PUAMES': 6.6, 'MECS': 4.6, 'CHUMES': 8.6, 'MEUS': 2.6, 'ACMES': 5.6, 'CAMES': 5.6, 'LAIC': 6.0, 'MUES': 2.6, 'HUMEUR': 7.2, 'NUAGE': 3.5, 'CLAMES': 5.6}",12,2.6,2.6900000000000004,4.324999999999999,5.6,5.5249999999999995,4.324999999999999,7.739999999999999,8.6
113,2,1,"{'NUA': 3, 'RAM': 4, 'MUR': 4, 'MURA': 5, 'RIDEE': 6.0, 'MUA': 4, 'CEDRE': 8.0, 'POILU': 7.0, 'AIDEE': 6.0, 'RUA': 3, 'LIEUR': 5.0, 'MORAL': 6.0, 'CEDER': 8.0, 'POILA': 7.0, 'ARUM': 5, 'MAN': 4}",16,3,3.5,4,5,5.3125,4,7.5,8
113,2,2,"{'POILU': 7.0, 'POILUS': 8.0, 'LIEUX': 14.0, 'CEDEX': 17.0}",4,7,7.3,7.75,11,11.5,7.75,16.1,17
113,2,3,"{'POILU': 7.0, 'AIDEE': 6.0, 'POILA': 7.0, 'POILAS': 8.0, 'BRUIE': 7.0, 'BRAIE': 7.0, 'RAMA': 5.0, 'ABRIE': 7.0, 'NUA': 3}",9,3,4.6,6,7,6.333333333333333,6,7.2,8
113,2,4,"{'AIDEE': 6.0, 'POILAS': 8.0, 'RAMAI': 6.0, 'IODEE': 6.0, 'ABRIE': 7.0, 'BROIE': 7.0, 'POILA': 7.0, 'BORIE': 7.0, 'RAMIN': 6.0, 'BRAIE': 7.0, 'RAMA': 5.0}",11,5,6,6,7,6.545454545454546,6,7,8
113,2,5,"{'BROIE': 7.0, 'RAMIN': 6.0, 'FON': 6, 'BORIE': 7.0, 'IODEE': 6.0}",5,6,6,6,6,6.4,6,7,7
113,2,6,"{'ORALE': 5.0, 'POILUES': 9.0, 'CEDEES': 9.0, 'POILUE': 8.0, 'BRIEE': 7.0, 'FONTE': 8.0, 'POILE': 7.0, 'RAMIE': 6.0, 'TENUE': 5.0, 'LIEUE': 5.0, 'RAME': 5.0, 'BRIMEE': 9.0, 'BRIEFE': 11.0, 'POILES': 8.0, 'LOTE': 4.0}",15,4,5,5,7,7.066666666666666,5,9,11
113,2,7,{'RAMIN': 6.0},1,6,6,6,6,6,6,6,6
113,2,8,"{'ORALE': 5.0, 'POILUES': 9.0, 'POILES': 8.0, 'POILUE': 8.0, 'FONDE': 9.0, 'BRIEE': 7.0, 'LIEUE': 5.0, 'POILE': 7.0, 'RAMIE': 6.0, 'TENUE': 5.0, 'CENDRE': 9.0, 'RAMIN': 6.0, 'RAME': 5.0, 'BRIMEE': 9.0, 'BRIEFE': 11.0, 'FONTE': 8.0, 'LOTE': 4.0}",17,4,5,5,7,7.117647058823529,5,9,11
113,2,9,"{'FION': 7.0, 'FOIN': 7.0, 'LOTI': 4.0, 'CENDRE': 9.0, 'RAMIN': 6.0, 'POILAI': 8.0, 'ILOT': 4.0}",7,4,4,5,7,6.428571428571429,5,8.4,9
113,2,10,"{'RAMIN': 6.0, 'CENDRE': 9.0, 'POILANT': 9.0, 'FOHN': 10.0}",4,6,6.8999999999999995,8.25,9,8.5,8.25,9.7,10
114,1,1,"{'HEU': 6, 'HIEE': 7, 'NAGEE': 6.0, 'HUE': 6, 'EUE': 3, 'SORES': 3.0, 'DINAI': 3.5, 'HUEE': 7, 'POSAI': 4.0, 'SOIRS': 3.0, 'HUI': 6, 'HIE': 6, 'NUAGE': 6.0, 'VOUES': 8.0, 'EUH': 6}",15,3,3,3.75,6,5.366666666666666,3.75,7,8
114,1,2,"{'AIMES': 3.1, 'DINAI': 3.5, 'NAGEE': 6.0, 'HUEE': 7.0, 'SORES': 3.0, 'MIES': 2.6, 'SOIRS': 3.0, 'POSAI': 4.0, 'AMIES': 3.1, 'VOUES': 8.0}",10,2.6,2.96,3.025,3.3,4.33,3.025,7.1,8
114,1,3,"{'HUMES': 7.8, 'AIMES': 3.1, 'NAGEE': 6.0, 'HUES': 7.0, 'MESS': 2.6, 'SORES': 3.0, 'DINAI': 3.5, 'HUEE': 7.0, 'POSAIS': 5.0, 'VOUES': 8.0, 'DINAS': 3.5, 'HUMEE': 7.8, 'AMIES': 3.1, 'NAGES': 6.0, 'POSAS': 4.0, 'SAMES': 3.1, 'MIES': 2.6, 'SOIRS': 3.0}",18,2.6,2.88,3.1,3.75,4.783333333333333,3.1,7.800000000000001,8
114,1,4,"{'AIMES': 3.1, 'NAGEE': 6.0, 'HUMEES': 8.8, 'DINAI': 3.5, 'VOUES': 8.0, 'HUMEE': 7.8, 'AMIES': 3.1, 'SORES': 3.0, 'MIES': 2.6, 'SOIRS': 3.0, 'BANI': 3.5, 'BAIN': 3.5}",12,2.6,3,3.075,3.5,4.658333333333333,3.075,7.98,8.8
114,1,5,"{'LIE': 3, 'AIMES': 3.1, 'ILE': 3, 'NAGEE': 6.0, 'LEI': 3, 'MELS': 2.6, 'PALMES': 4.3, 'VOUES': 8.0, 'HUMEE': 7.8, 'AMIES': 3.1, 'SORES': 3.0, 'MIES': 2.6, 'SOIRS': 3.0, 'BANI': 3.5, 'PAMEES': 4.3, 'BAIN': 3.5, 'LAMES': 3.1}",17,2.6,2.84,3,3.1,3.935294117647059,3,6.720000000000001,8
114,1,6,"{'HUMEE': 7.8, 'PAUMEES': 4.7, 'SORES': 3.0, 'MELS': 2.6, 'PALMES': 4.3, 'VOUES': 8.0, 'PAMEES': 4.3, 'LAMES': 3.1}",8,2.6,2.88,3.075,4.3,4.7250000000000005,3.075,7.859999999999999,8
114,1,7,"{'LEU': 3, 'PUAMES': 4.3, 'HUMEE': 7.8, 'MELS': 2.6, 'PALMES': 4.3, 'MEUS': 2.6, 'VOUES': 8.0, 'LAMEES': 4.1, 'PAUMEES': 4.7, 'LUE': 3, 'MUES': 2.6, 'SORES': 3.0, 'NUAGE': 6.0, 'ELU': 3, 'PAMEES': 4.3, 'BLANC': 4.7}",16,2.6,2.6,3,4.199999999999999,4.25,3,6.9,8
114,1,8,"{'LEU': 3, 'PUAMES': 4.3, 'SORES': 3.0, 'MELS': 2.6, 'MEUS': 2.6, 'VOUES': 8.0, 'LAMEES': 4.1, 'PAUMEES': 4.7, 'LUE': 3, 'MUES': 2.6, 'LAIE': 1.6, 'NUAGE': 6.0, 'PALMEES': 5.3, 'ELU': 3, 'PAMEES': 4.3, 'BLANC': 4.7}",16,1.6,2.6,2.9,3.55,3.925,2.9,5.65,8
114,1,9,"{'RHUME': 7.8, 'AMERS': 3.1, 'RHUMEES': 9.2, 'MERS': 2.6, 'RHUMEE': 8.2, 'DINAR': 3.5, 'PRAMES': 4.3, 'LARMES': 4.1, 'PARMES': 4.3, 'RHUMES': 8.8, 'HURE': 7.0, 'BARN': 3.5, 'RAMES': 3.1, 'HUMER': 7.8, 'ARMES': 3.1, 'PARUMES': 4.7, 'NAGER': 6.0, 'RELU': 4.0, 'HUER': 7.0, 'PALMERS': 5.3, 'NUERS': 3.0, 'LARI': 1.6, 'BRAN': 3.5}",23,1.6,3.02,3.3,4.3,5.021739130434782,3.3,8.12,9.2
114,1,10,{'MAMES': 4.1},1,4.1,4.1,4.1,4.1,4.1,4.1,4.1,4.1
114,2,1,"{'SIR': 3, 'ERS': 3, 'SBIRE': 7, 'BER': 5, 'LIEUS': 5.0, 'BRISE': 7, 'POILS': 7.0, 'RIS': 3, 'TENUE': 5.0, 'POILE': 7.0, 'IDEES': 6.0, 'RAMI': 5.0, 'TENUS': 5.0, 'RAME': 5.0, 'RIE': 3, 'BIS': 5, 'BERS': 6, 'SIRE': 4, 'BRIS': 6, 'RIDEE': 6.0, 'IRES': 4, 'CEDRE': 8.0, 'CEDES': 8.0, 'BRIES': 7, 'IRE': 3, 'BRIE': 6, 'REIS': 4, 'ORALE': 5.0, 'BISER': 7, 'LIEUR': 5.0, 'CEDEE': 8.0, 'CEDER': 8.0, 'LIEUE': 5.0, 'BISE': 6, 'RIES': 4}",35,3,3,4.5,5,5.457142857142857,4.5,7.600000000000001,8
114,2,2,"{'LIEUR': 5.0, 'ORALE': 5.0, 'RIDEE': 6.0, 'TENUE': 5.0, 'IRE': 3, 'POILE': 7.0, 'BER': 5, 'RAMI': 5.0, 'CEDRE': 8.0, 'RAME': 5.0, 'CEDER': 8.0, 'LIEUE': 5.0, 'RIE': 3, 'POILES': 8.0, 'BRIE': 6}",15,3,3.8000000000000007,5,5,5.6,5,8,8
114,2,3,"{'RAMI': 5.0, 'BRIEF': 10.0}",2,5,5.5,6.25,7.5,7.5,6.25,9.5,10
114,2,4,"{'GRAM': 6.0, 'BRIEF': 10.0}",2,6,6.4,7,8,8,7,9.6,10
114,2,5,"{'TRAM': 5.0, 'POILAT': 8.0, 'FONT': 7.0, 'GRAM': 6.0}",4,5,5.300000000000001,5.75,6.5,6.5,5.75,7.7,8
114,2,6,"{'DRAM': 6.0, 'BRIDE': 8.0, 'FOND': 8.0, 'GRAM': 6.0, 'TENDU': 6.0}",5,6,6,6,6,6.8,6,8,8
114,2,7,"{'CEDER': 8.0, 'GRAM': 6.0, 'CEDRE': 8.0, 'FRONT': 8.0, 'RIDEE': 6.0, 'CEDRES': 9.0, 'BRIMER': 9.0, 'LIEUR': 5.0}",8,5,5.699999999999999,6,8,7.375,6,9,9
114,2,8,"{'BLOT': 6.0, 'GRAM': 6.0, 'BRIBE': 9.0}",3,6,6.000000000000001,6,6,7,6,8.4,9
114,2,9,"{'BLOT': 6.0, 'FRONDE': 10.0, 'FONDER': 10.0, 'RIDEE': 6.0, 'CEDRES': 9.0, 'BRIMER': 9.0, 'LIEUR': 5.0, 'CEDER': 8.0, 'GRAM': 6.0, 'BRIBE': 9.0, 'FRONT': 8.0, 'FONDRE': 10.0}",12,5,6,6,8.5,8,6,10,10
114,2,10,"{'FONDEE': 10.0, 'BLOT': 6.0, 'ORALE': 5.0, 'POILUES': 9.0, 'POILES': 8.0, 'TENUE': 5.0, 'POILUE': 8.0, 'BRIEE': 7.0, 'LIEUE': 5.0, 'POILE': 7.0, 'RAMIE': 6.0, 'GRAM': 6.0, 'BRIBE': 9.0, 'RAME': 5.0, 'BRIMEE': 9.0, 'BRIEFE': 11.0, 'FONTE': 8.0, 'LOTE': 4.0}",18,4,5,5.25,7,7.111111111111111,5.25,9.3,11
115,1,1,"{'NAGEE': 3.5, 'HUEE': 5.8, 'SORES': 5.0, 'VOUES': 4.5, 'DINAS': 6.0, 'HUES': 5.8, 'NAGES': 3.5, 'MES': 4, 'POSAS': 4.0, 'HEM': 7, 'HUME': 6.8}",11,3.5,3.5,4,5,5.081818181818182,4,6.8,7
115,1,2,"{'MAMES': 6.5, 'HUME': 6.8}",2,6.5,6.53,6.575,6.65,6.65,6.575,6.77,6.8
115,1,3,"{'HUMEE': 7.8, 'SORES': 5.0, 'NAGEE': 3.5, 'HUEE': 5.8, 'HUMEES': 7.8, 'VOUES': 4.5}",6,3.5,4,4.625,5.4,5.733333333333334,4.625,7.8,7.8
115,1,4,"{'HUMEES': 7.8, 'SORES': 5.0, 'VOUES': 4.5, 'NAGEE': 3.5, 'HUMEE': 7.8}",5,3.5,3.9,4.5,5,5.720000000000001,4.5,7.8,7.8
115,1,5,"{'HUMEE': 7.8, 'SORES': 5.0, 'NAGEE': 3.5, 'PAMEES': 6.7, 'VOUES': 4.5}",5,3.5,3.9,4.5,5,5.5,4.5,7.359999999999999,7.8
115,1,6,{},0,0,0,0,0,NA,0,0,0
115,1,7,"{'HUMEE': 7.8, 'MAMES': 6.5}",2,6.5,6.630000000000001,6.825,7.15,7.15,6.825,7.67,7.8
115,1,8,"{'BANNI': 3.6, 'HUNE': 5.8, 'VELU': 5.8, 'MENS': 5.0}",4,3.6,4.0200000000000005,4.65,5.4,5.05,4.65,5.799999999999999,5.8
115,1,9,"{'NAGEA': 3.5, 'VAN': 6, 'HUNE': 5.8, 'HAN': 6, 'ELUA': 2.8, 'HUMERA': 8.4, 'HUAMES': 7.8, 'BANNI': 3.6, 'VOUAS': 4.5, 'MESA': 5.0, 'MENS': 5.0, 'VELU': 5.8}",12,2.8,3.51,4.275,5.4,5.3500000000000005,4.275,7.62,8.4
115,1,10,"{'NAGEA': 3.5, 'NAVE': 7, 'HAN': 6, 'PALMEES': 7.6, 'LAMEES': 5.5, 'VOUAS': 4.5, 'ELUE': 2.8, 'HAVE': 10, 'VAN': 6, 'MESA': 5.0, 'MENS': 5.0, 'BANNI': 3.6, 'PAMEES': 6.7, 'ANE': 3, 'AVEN': 7, 'ELUA': 2.8, 'SORES': 5.0, 'HUMERA': 8.4, 'VOUES': 4.5, 'VELU': 5.8, 'PAUMEES': 7.1, 'LAIE': 1.6, 'AVE': 6, 'HUNE': 5.8, 'HUAMES': 7.8}",25,1.6,2.88,4.5,5.8,5.520000000000001,4.5,7.720000000000001,10
115,2,1,"{'LEST': 4, 'TOS': 3, 'POILES': 8.0, 'SOL': 3, 'LOS': 3, 'IDEEL': 6.0, 'LOT': 3, 'LIEUS': 5.0, 'OTES': 4, 'SET': 3, 'TEL': 3, 'OLE': 3, 'LOTS': 4, 'OST': 3, 'TENUE': 5.0, 'POILE': 7.0, 'IDEES': 6.0, 'SOT': 3, 'TENUS': 5.0, 'RAME': 5.0, 'TES': 3, 'OSE': 3, 'TOLE': 4, 'EST': 3, 'IODEE': 6.0, 'SOLE': 4, 'LOTES': 5, 'CEDES': 8.0, 'TELS': 4, 'SEL': 3, 'TRAM': 5.0, 'OTE': 3, 'CEDEE': 8.0, 'ORALE': 5.0, 'LES': 3, 'LET': 3, 'LOTE': 4, 'TOLES': 5, 'LIEUE': 5.0}",39,3,3,3,4,4.358974358974359,3,6.200000000000003,8
115,2,2,"{'LUTS': 4, 'LUOS': 4, 'LUT': 3, 'TOS': 3, 'SOUL': 4, 'LOS': 3, 'LUS': 3, 'TOLU': 4, 'LOT': 3, 'LUO': 3, 'POILU': 7.0, 'OUST': 4, 'BRISE': 7.0, 'LOTUS': 5, 'TUS': 3, 'OST': 3, 'IDEEL': 6.0, 'BROIE': 7.0, 'IDEES': 6.0, 'SOU': 3, 'SOT': 3, 'TENUS': 5.0, 'SOL': 3, 'TOLUS': 5, 'IODEE': 6.0, 'BRUIE': 7.0, 'BRIES': 7.0, 'TRAM': 5.0, 'CEDEES': 9.0, 'LIEUS': 5.0, 'LOTS': 4, 'TOUS': 4, 'BORIE': 7.0, 'SUT': 3, 'CEDES': 8.0, 'POILUS': 8.0, 'OUT': 3}",37,3,3,3,4,4.783783783783784,3,7,9
115,2,3,"{'TOMS': 5, 'BORIE': 7.0, 'IODEE': 6.0, 'TOS': 3, 'SMOLT': 6, 'SOL': 3, 'LOS': 3, 'MOTS': 5, 'LOT': 3, 'TOM': 4, 'BRIES': 7.0, 'MOT': 4, 'MOS': 4, 'RAMIS': 6.0, 'BRISE': 7.0, 'TRAM': 5.0, 'CEDEES': 9.0, 'SOM': 4, 'OST': 3, 'IDEEL': 6.0, 'LIEUS': 5.0, 'BROIE': 7.0, 'IDEES': 6.0, 'LOTS': 4, 'MORAL': 6.0, 'SOT': 3, 'BRIME': 8.0, 'MOL': 4, 'TENUS': 5.0, 'CEDES': 8.0}",30,3,3,4,5,5.2,4,7.100000000000001,9
115,2,4,"{'POILAT': 8.0, 'RAMIS': 6.0, 'POILAS': 8.0, 'IODEE': 6.0, 'TOS': 3, 'BRIMES': 9.0, 'BRIEFS': 11.0, 'OST': 3, 'LOS': 3, 'HOT': 6, 'LOT': 3, 'BRIES': 7.0, 'HOTS': 7, 'SOL': 3, 'BRISE': 7.0, 'TRAM': 5.0, 'CEDEES': 9.0, 'HOST': 7, 'IDEEL': 6.0, 'LIEUS': 5.0, 'BROIE': 7.0, 'IDEES': 6.0, 'LOTS': 4, 'SOT': 3, 'BORIE': 7.0, 'TENUS': 5.0, 'CEDES': 8.0}",27,3,3,4.5,6,6,4.5,8.400000000000002,11
115,2,5,"{'BROIE': 7.0, 'POILAT': 8.0, 'HOT': 6, 'LOT': 3, 'BORIE': 7.0, 'FOHN': 10.0, 'TRAM': 5.0, 'IODEE': 6.0, 'TOT': 3, 'IDEEL': 6.0}",10,3,3,5.25,6,6.1,5.25,8.2,10
115,2,6,"{'TRAM': 5.0, 'POILAT': 8.0, 'FOHN': 10.0}",3,5,5.6,6.5,8,7.666666666666667,6.5,9.6,10
115,2,7,"{'BROIE': 7.0, 'POILAT': 8.0, 'HOT': 6, 'LOTO': 4.0, 'BORIE': 7.0, 'FOHN': 10.0, 'TRAM': 5.0, 'IODEE': 6.0}",8,4,4.7,5.75,6.5,6.625,5.75,8.6,10
115,2,8,"{'TRAM': 5.0, 'POILAT': 8.0, 'RAMIN': 6.0, 'CENDRE': 9.0, 'FOHN': 10.0}",5,5,5.4,6,8,7.6,6,9.6,10
115,2,9,"{'POILAT': 8.0, 'IODEE': 6.0, 'TRAM': 5.0, 'CENDRE': 9.0, 'BROIE': 7.0, 'HOT': 6, 'THON': 7, 'TON': 3, 'BORIE': 7.0, 'FOHN': 10.0, 'RAMIN': 6.0, 'POILAIT': 9.0, 'ONT': 3}",13,3,3.4000000000000004,6,7,6.615384615384615,6,9,10
115,2,10,"{'BROIE': 7.0, 'NON': 3, 'POILANT': 9.0, 'BORIE': 7.0, 'CENDRE': 9.0, 'RAMIN': 6.0, 'IODEE': 6.0, 'FOHN': 10.0}",8,3,5.1,6,7,7.125,6,9.3,10
201,1,1,"{'URE': 3, 'VUE': 6, 'VER': 6, 'RIDEE': 3.5, 'RYE': 12, 'DINAR': 6.0, 'TENUE': 5.0, 'YUE': 12, 'POILU': 4.0, 'NUEES': 3.0, 'LIEUR': 3.0, 'RUE': 3, 'POILE': 4.0, 'NUERS': 3.0, 'LIEUE': 3.0, 'REVU': 7, 'VIDEE': 6.5}",17,3,3,3,4,5.294117647058823,3,9.000000000000002,12
201,1,2,"{'VER': 6, 'NUEES': 3.0, 'RIDEE': 3.5, 'RYE': 12, 'POILUE': 5.0, 'LIEUR': 3.0, 'BEY': 14, 'POILE': 4.0, 'DINAR': 6.0, 'TENUE': 5.0, 'BAINE': 4.0, 'NUERS': 3.0, 'LIEUE': 3.0, 'BER': 5, 'BYE': 14, 'VIDEE': 6.5}",16,3,3,3.375,5,6.0625,3.375,13,14
201,1,3,"{'POILE': 4.0, 'NUEES': 3.0, 'BEY': 14, 'BAINE': 4.0, 'BYE': 14, 'POILUE': 5.0, 'TENUE': 5.0}",7,3,3.6,4,5,7,4,14,14
201,1,4,"{'BOY': 14, 'IODEE': 3.5, 'DOINA': 6.0, 'NOUES': 3.0}",4,3,3.15,3.375,4.75,6.625,3.375,11.6,14
201,1,5,"{'BOY': 14, 'BYE': 14, 'IODEE': 3.5, 'VOISE': 4.3, 'POILUE': 5.0, 'DOINA': 6.0, 'NUEES': 3.0, 'BAINE': 4.0, 'BEY': 14, 'TENUE': 5.0, 'NOUES': 3.0, 'OYE': 12, 'VOIES': 4.3, 'POILEE': 5.0}",14,3,3.15,4.075,5,6.935714285714285,4.075,14,14
201,1,6,"{'BOY': 14, 'BYE': 14, 'IODEE': 3.5, 'VOISE': 4.3, 'POILUE': 5.0, 'DOINA': 6.0, 'NUEES': 3.0, 'BAINE': 4.0, 'BEY': 14, 'TENUE': 5.0, 'NOUES': 3.0, 'OYE': 12, 'VOIES': 4.3, 'POILEE': 5.0}",14,3,3.15,4.075,5,6.935714285714285,4.075,14,14
201,1,7,"{'BOY': 14, 'IODEE': 3.5, 'DINAI': 6.0, 'VOISE': 4.3, 'BAINE': 4.0, 'NUEES': 3.0, 'BEY': 14, 'TENUE': 5.0, 'POILIEZ': 8.0, 'OYE': 12, 'BYE': 14, 'POILEE': 5.0, 'BIO': 5, 'BADINE': 4.0, 'IBO': 5, 'OIE': 3, 'OBI': 5, 'POILUE': 5.0, 'DOINA': 6.0, 'NOUES': 3.0, 'VOIES': 4.3, 'OBEI': 6}",22,3,3.05,4.075,5,6.322727272727274,4.075,13.800000000000004,14
201,1,8,"{'IDEEL': 3.5, 'VOLIS': 4.3, 'VOLS': 4.0}",3,3.5,3.6000000000000005,3.75,4,3.9333333333333336,3.75,4.24,4.3
201,1,9,"{'VOILES': 4.5, 'IDEEL': 3.5, 'VOLIS': 4.3, 'VOLS': 4.0}",4,3.5,3.65,3.875,4.15,4.075,3.875,4.4399999999999995,4.5
201,1,10,"{'VOILES': 4.5, 'IDEEL': 3.5, 'LIEUX': 12.0, 'VOLIS': 4.3, 'VOLS': 4.0}",5,3.5,3.7,4,4.3,5.66,4,9,12
201,2,1,"{'REBU': 6, 'URE': 3, 'BEUR': 6, 'NAGEE': 6.0, 'PEUR': 6, 'PEU': 5, 'REPU': 6, 'NAGER': 6.0, 'CEDRE': 8.0, 'BER': 5, 'NUAGE': 6.0, 'CEDEE': 8.0, 'BEU': 5, 'PRE': 5, 'ORALE': 5.0, 'SORES': 5.0, 'BRU': 5, 'PUB': 7, 'VOUES': 8.0, 'PUER': 6, 'RUE': 3, 'PURE': 6, 'PUE': 5, 'CEDER': 8.0, 'BURE': 6, 'RUPE': 6, 'PUR': 5, 'BUE': 5}",28,3,5,5,6,5.75,5,8,8
201,2,2,"{'CEDER': 8.0, 'NAGER': 6.0, 'NAGEE': 6.0, 'CEDRE': 8.0, 'ORALE': 5.0, 'SORES': 5.0, 'BALE': 6.0, 'RYE': 12, 'VOUES': 8.0}",9,5,5,6,6,7.111111111111111,6,8.8,12
201,2,3,"{'NAGEE': 6.0, 'ORALE': 5.0, 'SORES': 5.0, 'BALE': 6.0, 'VOUES': 8.0, 'BAIL': 6.0, 'SOIRS': 5.0}",7,5,5,5,6,5.857142857142857,5,6.800000000000001,8
201,2,4,"{'BAIL': 6.0, 'CEDIEZ': 18.0, 'SOIRS': 5.0}",3,5,5.2,5.5,6,9.666666666666666,5.5,15.6,18
201,2,5,{},0,0,0,0,0,NA,0,0,0
201,2,6,"{'YOLE': 13, 'OLE': 3, 'ORALE': 5.0, 'SORES': 5.0, 'BALE': 6.0, 'FORE': 7.0, 'VOUES': 8.0, 'OYE': 12}",8,3,4.4,5,6.5,7.375,5,12.3,13
201,2,7,"{'SOL': 3, 'LOS': 3, 'LYS': 12, 'CEDEES': 9.0, 'ORALES': 6.0, 'POSAIS': 8.0, 'PUBS': 8.0, 'NAGERAS': 8.0, 'NAGEURS': 8.0, 'NAGES': 6.0, 'NAGEES': 7.0, 'POSAS': 7.0, 'FORS': 7.0, 'CEDES': 8.0, 'BALS': 6.0}",15,3,4.2,6,7,7.066666666666666,6,8.6,12
201,2,8,"{'GOY': 13, 'LOG': 4}",2,4,4.9,6.25,8.5,8.5,6.25,12.1,13
201,2,9,"{'ORVAL': 8.0, 'ORVALE': 9.0}",2,8,8.1,8.25,8.5,8.5,8.25,8.899999999999999,9
201,2,10,"{'ORVAL': 8.0, 'ORVALE': 9.0}",2,8,8.1,8.25,8.5,8.5,8.25,8.899999999999999,9
202,1,1,"{'POILS': 7.0, 'IODEE': 3.5, 'SOI': 3, 'OIS': 3, 'DINAI': 3.5, 'VOS': 6, 'DOINA': 3.5, 'LIEUS': 3.0, 'DINAS': 3.5, 'TENDU': 4.0, 'VIS': 6, 'ISO': 3, 'IDEES': 3.5, 'NOUES': 5.0, 'TENUS': 3.0, 'DOS': 4, 'POILUS': 7.5, 'DOIS': 5, 'VOIS': 7, 'VIDEE': 6.5, 'DIS': 4}",21,3,3,3.5,4,4.5,3.5,7,7.5
202,1,2,"{'TENDU': 4.0, 'POILA': 7.0, 'BADIN': 5.0, 'AIDEE': 3.5, 'AID': 4, 'DINAI': 3.5, 'VOIS': 7.0, 'DIA': 4}",8,3.5,3.5,3.875,4,4.75,3.875,7,7
202,1,3,"{'TENDU': 4.0, 'POILEZ': 16.3, 'BADIN': 5.0, 'BAZIN': 13.0, 'DINAI': 3.5, 'VOIS': 7.0}",6,3.5,3.75,4.25,6,8.133333333333333,4.25,14.65,16.3
202,1,4,"{'TENDU': 4.0, 'POILEZ': 16.3, 'BADIN': 5.0, 'BAZIN': 13.0}",4,4,4.3,4.75,9,9.575,4.75,15.310000000000002,16.3
202,1,5,"{'TENDU': 4.0, 'POILA': 7.0, 'BADIN': 5.0}",3,4,4.2,4.5,5,5.333333333333333,4.5,6.6000000000000005,7
202,1,6,"{'TENDU': 4.0, 'IODEE': 3.5, 'BADIN': 5.0, 'DOINA': 3.5, 'NOUES': 5.0}",5,3.5,3.5,3.5,4,4.2,3.5,5,5
202,1,7,"{'DEO': 4, 'BADINE': 6.0, 'NUEES': 5.0, 'VOISE': 8.0, 'POILUE': 7.5, 'DOINA': 3.5, 'TENDU': 4.0, 'BAINE': 4.0, 'OBEIE': 4.6, 'TENUE': 3.0, 'NOUES': 5.0, 'IODEE': 3.5, 'VOIES': 8.0, 'POILEE': 7.3, 'ODE': 4}",15,3,3.5,4,4.6,5.159999999999999,4,7.8,8
202,1,8,"{'DEO': 4, 'BADINE': 6.0, 'NUEES': 5.0, 'VOISE': 8.0, 'POILUE': 7.5, 'DOINA': 3.5, 'TENDU': 4.0, 'BAINE': 4.0, 'OBEIE': 4.6, 'TENUE': 3.0, 'NOUES': 5.0, 'IODEE': 3.5, 'VOIES': 8.0, 'ODE': 4}",14,3,3.5,4,4.3,5.007142857142857,4,7.85,8
202,1,9,"{'TENDU': 4.0, 'IODEE': 3.5, 'DOINA': 3.5, 'NOUES': 5.0}",4,3.5,3.5,3.5,3.75,4,3.5,4.7,5
202,1,10,"{'TENDU': 4.0, 'NOUES': 5.0, 'DINAI': 3.5, 'POILIEZ': 17.3, 'IODEE': 3.5, 'DOINA': 3.5}",6,3.5,3.5,3.5,3.75,6.133333333333333,3.5,11.15,17.3
202,2,1,"{'NAGEA': 6.0, 'PLU': 5, 'BAU': 5, 'PALU': 6, 'PULA': 6, 'PUA': 5, 'PUB': 7, 'VOUAS': 8.0, 'NUAGE': 6.0, 'BAL': 5, 'ALU': 3, 'PAL': 5}",12,3,5,5,5.5,5.583333333333333,5,6.9,8
202,2,2,"{'NUAGE': 6.0, 'NAGEUR': 7.0}",2,6,6.1000000000000005,6.25,6.5,6.5,6.25,6.8999999999999995,7
202,2,3,"{'CEDEZ': 17.0, 'NAGEZ': 15.0}",2,15,15.2,15.5,16,16,15.5,16.8,17
202,2,4,{},0,0,0,0,0,NA,0,0,0
202,2,5,"{'PAP': 7, 'NAGEA': 6.0, 'NAGERA': 7.0, 'VOUAS': 8.0, 'FORA': 7.0}",5,6,6.4,7,7,7,7,7.6,8
202,2,6,{},0,0,0,0,0,NA,0,0,0
202,2,7,"{'POSAT': 7.0, 'STORES': 6.0, 'SORTES': 6.0, 'SORTS': 5.0, 'SPORES': 8.0, 'POSAIT': 8.0, 'POSTA': 7.0, 'PSORES': 8.0, 'POSTAI': 8.0, 'FORT': 7.0}",10,5,5.9,6.25,7,7,6.25,8,8
202,2,8,"{'SPORES': 8.0, 'PSORES': 8.0}",2,8,8,8,8,8,8,8,8
202,2,9,"{'LOGE': 5.0, 'HEP': 8, 'SPORES': 8.0, 'BALE': 6.0, 'PEP': 7, 'PSORES': 8.0, 'FORE': 7.0, 'VOUES': 8.0}",8,5,5.699999999999999,6.75,7.5,7.125,6.75,8,8
202,2,10,"{'MORALE': 7.0, 'LODGE': 7.0, 'MORAL': 6.0}",3,6,6.200000000000001,6.5,7,6.666666666666667,6.5,7,7
203,1,1,"{'NABI': 6, 'IBN': 5, 'DINAI': 3.5, 'NAN': 3, 'BANNI': 7, 'NAIN': 4, 'BAN': 5, 'BANI': 6, 'VOIS': 4.0, 'BAIN': 6, 'BAI': 5, 'AIDEE': 6.0, 'NIB': 5, 'NIA': 3, 'BINA': 6, 'ANI': 3, 'POILA': 4.0}",17,3,3,4,5,4.794117647058823,4,6,7
203,1,2,"{'POILE': 4.0, 'NUEES': 3.0, 'BAINE': 7.0, 'LIEUE': 5.0, 'POILUE': 4.5, 'TENUE': 3.0}",6,3,3,3.25,4.25,4.416666666666667,3.25,6,7
203,1,3,{},0,0,0,0,0,NA,0,0,0
203,1,4,"{'NIB': 5, 'DINAI': 3.5, 'IBN': 5, 'POILIEZ': 7.300000000000001}",4,3.5,3.95,4.625,5,5.2,4.625,6.610000000000001,7.300000000000001
203,1,5,"{'VOUS': 4.0, 'IBN': 5, 'NIB': 5, 'DINAI': 3.5, 'NUI': 3, 'POILUE': 4.3, 'BUN': 5, 'POILIEZ': 7.300000000000001, 'UNI': 3, 'POILAI': 4.2}",10,3,3,3.625,4.25,4.430000000000001,3.625,5.2299999999999995,7.300000000000001
203,1,6,"{'VOUS': 4.0, 'BUN': 5, 'POILUE': 4.3}",3,4,4.0600000000000005,4.15,4.3,4.433333333333334,4.15,4.859999999999999,5
203,1,7,"{'VOUS': 4.0, 'NUL': 3, 'BUN': 5, 'VOLIS': 4.3, 'VOLS': 4.0, 'POILUE': 4.3, 'IDEEL': 6.0}",7,3,3.6,4,4.3,4.371428571428572,4,5.4,6
203,1,8,"{'BLEU': 6, 'VOUS': 4.0, 'BEN': 5, 'LUNE': 4, 'BEL': 5, 'NUE': 3, 'VOISE': 4.3, 'UNE': 3, 'VOLIS': 4.3, 'VOILES': 4.5, 'NUEES': 3.0, 'LUE': 3, 'BAINE': 7.0, 'VOLS': 4.0, 'BLE': 5, 'IDEEL': 6.0, 'ELU': 3, 'BADINE': 7.0, 'POILUE': 4.5, 'TENUE': 3.0, 'NUL': 3, 'OBEIE': 4.6, 'BUN': 5, 'LEU': 3, 'BEU': 5, 'BUE': 5}",26,3,3,3,4.4,4.392307692307693,3,6,7
203,1,9,{},0,0,0,0,0,NA,0,0,0
203,1,10,"{'BAN': 5, 'ALUNE': 5.0, 'AVOIES': 4.5, 'NAN': 3, 'BADINA': 7.0}",5,3,3.5999999999999996,4.5,5,4.9,4.5,6.200000000000001,7
203,2,1,"{'NAGEE': 6.0, 'DEO': 4, 'ORALE': 5.0, 'SORES': 5.0, 'BALE': 6.0, 'VOUES': 8.0, 'ODE': 4, 'CEDEE': 8.0}",8,4,4,4.75,5.5,5.75,4.75,8,8
203,2,2,"{'KOI': 12, 'FOI': 6, 'KIF': 15, 'KID': 13, 'BAIL': 6.0, 'POSAI': 7.0, 'SOIRS': 5.0}",7,5,5.6,6,7,9.142857142857142,6,13.8,15
203,2,3,"{'CEDER': 8.0, 'FOR': 6, 'CEDRE': 8.0}",3,6,6.4,7,8,7.333333333333333,7,8,8
203,2,4,"{'CEDER': 8.0, 'FOR': 6, 'CEDRE': 8.0}",3,6,6.4,7,8,7.333333333333333,7,8,8
203,2,5,"{'FOUR': 7.0, 'NUAGE': 6.0}",2,6,6.1000000000000005,6.25,6.5,6.5,6.25,6.8999999999999995,7
203,2,6,"{'FOUR': 7.0, 'NUAGE': 6.0, 'SORES': 5.0, 'BALE': 6.0, 'DUE': 4, 'FORE': 7.0, 'VOUES': 8.0}",7,4,4.6,5.5,6,6.142857142857143,5.5,7.4,8
203,2,7,"{'FOUR': 7.0, 'NAGERAI': 8.0, 'CEDIEZ': 18.0, 'NUAGE': 6.0, 'BAIL': 6.0, 'KID': 13}",6,6,6,6.25,7.5,9.666666666666666,6.25,15.5,18
203,2,8,"{'FOUR': 7.0, 'NUAGE': 6.0}",2,6,6.1000000000000005,6.25,6.5,6.5,6.25,6.8999999999999995,7
203,2,9,"{'BALE': 6.0, 'LOGE': 5.0, 'PEPE': 8.0, 'FORE': 7.0, 'VOUES': 8.0}",5,5,5.4,6,7,6.8,6,8,8
203,2,10,"{'LODGES': 8.0, 'LOGS': 5.0, 'NAGEURS': 8.0, 'FOURS': 8.0, 'POSAIS': 8.0, 'PUBS': 8.0, 'FORS': 7.0, 'ORALES': 6.0, 'LOGES': 6.0, 'NAGERAIS': 9.0, 'NAGEES': 7.0, 'POSAS': 7.0, 'NAGERAS': 8.0, 'CEDES': 8.0, 'PEPS': 8.0, 'NAGES': 6.0, 'BALS': 6.0}",17,5,6,6,8,7.235294117647059,6,8,9
204,1,1,"{'BIO': 5, 'OBI': 5, 'IODEE': 3.5, 'DINAI': 6.0, 'IBO': 5, 'DOINA': 6.0, 'TENDU': 6.0, 'NOUES': 3.0}",8,3,3.35,4.625,5,4.9375,4.625,6,6
204,1,2,"{'BIO': 5, 'OBI': 5, 'IODEE': 3.5, 'DINAI': 6.0, 'DIA': 4, 'OBA': 5, 'TENDU': 6.0, 'IODEES': 4.0, 'ADO': 4, 'AID': 4, 'BAI': 5, 'AIDEE': 3.5, 'IBO': 5, 'DAB': 6, 'ABOI': 6, 'DAO': 4, 'IODA': 5, 'DOINA': 6.0, 'POILA': 4.0, 'BOA': 5, 'AIDEES': 4.0}",21,3.5,4,4,5,4.761904761904762,4,6,6
204,1,3,"{'BIO': 5, 'TENDU': 6.0, 'OBI': 5, 'IODEES': 4.0, 'IODEE': 3.5, 'DINAI': 6.0, 'IBO': 5, 'POILAI': 5.0, 'DIBI': 7, 'DOINA': 6.0}",10,3.5,3.95,5,5,5.25,5,6.1,7
204,1,4,"{'OBI': 5, 'IODEE': 3.5, 'DINAI': 6.0, 'DINAR': 6.0, 'IODEES': 4.0, 'NUERS': 3.0, 'LIEUR': 3.0, 'ROIDI': 6, 'ROI': 3, 'BORD': 7, 'POILAI': 5.0, 'DIBI': 7, 'BIO': 5, 'ORDI': 5, 'TENDU': 6.0, 'ROB': 5, 'IBO': 5, 'DOINA': 6.0, 'RIO': 3, 'TENURE': 5.5, 'RIDEES': 4.0, 'BRIO': 6, 'RIDEE': 3.5, 'TENDUE': 6.5}",24,3,3,3.875,5,4.958333333333333,3.875,6.35,7
204,1,5,"{'SIR': 3, 'POILAS': 5.0, 'IBO': 5, 'BIS': 5, 'BIOS': 6, 'IODEES': 4.0, 'TENUES': 5.5, 'SOIR': 4, 'OBIS': 6, 'POILAI': 5.0, 'LIEUES': 3.5, 'RIO': 3, 'BRIOS': 7, 'NUERS': 3.0, 'SOI': 3, 'TENDUS': 7.0, 'ROB': 5, 'OBI': 5, 'BIO': 5, 'RIS': 3, 'DOINA': 6.0, 'ROIS': 4, 'TENUS': 5.0, 'ROS': 3, 'DINAI': 6.0, 'TENDUES': 7.5, 'RIOS': 4, 'IODEE': 3.5, 'BRIS': 6, 'RIDEE': 3.5, 'DINAS': 6.0, 'DINAR': 6.0, 'BRIO': 6, 'ROI': 3, 'IBOS': 6, 'BOIS': 6, 'ROSI': 4, 'IBIS': 6, 'ROBS': 6, 'ORS': 3, 'LIEUR': 3.0, 'LIEUS': 3.0, 'IRIS': 4, 'TENURE': 5.5, 'RIDEES': 4.0, 'ISO': 3, 'OIS': 3, 'LIEUSE': 3.5}",48,3,3,3.375,5,4.635416666666667,3.375,6,7.5
204,1,6,"{'BAIS': 6, 'BAS': 5, 'POILAS': 5.0, 'IBO': 5, 'ISBA': 6, 'OSA': 3, 'AIS': 3, 'ABOIS': 7, 'IODEES': 4.0, 'TENUES': 5.5, 'BOA': 5, 'BOAS': 6, 'OBIS': 6, 'POILAI': 5.0, 'BAI': 5, 'LIEUES': 3.5, 'SAI': 3, 'SOI': 3, 'TENDUS': 7.0, 'IODEE': 3.5, 'DOINA': 6.0, 'BIOS': 6, 'OBAS': 6, 'TENUS': 5.0, 'AIDEES': 4.0, 'BISAI': 7, 'OSAI': 4, 'BIS': 5, 'TENDUES': 7.5, 'BIO': 5, 'OBI': 5, 'AIDEE': 3.5, 'DINAI': 6.0, 'OBA': 5, 'DINAS': 6.0, 'IBIS': 6, 'IBOS': 6, 'BASI': 6, 'BOIS': 6, 'BOISA': 7, 'LIEUS': 3.0, 'BIAIS': 7, 'ABOI': 6, 'RIDEES': 4.5, 'ISO': 3, 'IRIDEE': 4.5, 'BISA': 6, 'OIS': 3, 'LIEUSE': 3.5, 'BRIDEE': 6.5}",50,3,3,4,5,5.11,4,7,7.5
204,1,7,"{'POILAT': 5.0, 'POILAS': 5.0, 'QAT': 10, 'AIT': 3, 'OSA': 3, 'TOI': 3, 'AIS': 3, 'TOISA': 5, 'SOIT': 4, 'IODEES': 4.0, 'TENUES': 5.5, 'SATI': 4, 'POILAI': 5.0, 'AIDEE': 3.5, 'SAI': 3, 'TISAI': 5, 'TAS': 3, 'SOI': 3, 'TENDUS': 7.0, 'NOUETS': 3.3, 'IODEE': 3.5, 'MALS': 1.7999999999999998, 'DOINA': 6.0, 'OIS': 3, 'SAIT': 4, 'SOT': 3, 'ISO': 3, 'MALI': 1.7999999999999998, 'TENUS': 5.0, 'AIDEES': 4.0, 'TAO': 3, 'OSAI': 4, 'IOTA': 4, 'TENDUES': 7.5, 'OST': 3, 'OTA': 3, 'LIEUES': 3.5, 'DINAI': 6.0, 'DINAS': 6.0, 'QATS': 11, 'OTAI': 4, 'DINAT': 6.0, 'TOSA': 4, 'TAOS': 4, 'TOS': 3, 'TISA': 4, 'OSAT': 4, 'TAIS': 4, 'LIEUS': 3.0, 'MALT': 1.7999999999999998, 'OTAIS': 5, 'ASTI': 4, 'OTAS': 4, 'RIDEES': 4.5, 'MAIL': 1.7999999999999998, 'IRIDEE': 4.5, 'OIT': 3, 'OSAIT': 5, 'LIEUSE': 3.5, 'BRIDEES': 7.5}",60,1.7999999999999998,3,3,4,4.233333333333333,3,6,11
204,1,8,"{'AIT': 3, 'POILAT': 5.0, 'POILAS': 5.0, 'QAT': 10, 'TOS': 3, 'OSA': 3, 'TOI': 3, 'AIS': 3, 'TOISA': 5, 'SAIT': 4, 'SOIT': 4, 'IODEES': 4.0, 'TENUES': 5.5, 'SATI': 4, 'POILAI': 5.0, 'IRIDEES': 4.5, 'AIDEE': 3.5, 'SAI': 3, 'TISAI': 5, 'TAS': 3, 'SOI': 3, 'TENDUS': 7.0, 'NOUETS': 3.3, 'IODEE': 3.5, 'MALS': 1.7999999999999998, 'DOINA': 6.0, 'OIS': 3, 'OTAI': 4, 'SOT': 3, 'ISO': 3, 'MALI': 1.7999999999999998, 'TENUS': 5.0, 'AIDEES': 4.0, 'TAO': 3, 'OSAI': 4, 'IOTA': 4, 'TENDUES': 7.5, 'OST': 3, 'OTA': 3, 'LIEUES': 3.5, 'DINAI': 6.0, 'DINAS': 6.0, 'QATS': 11, 'DINAT': 6.0, 'TOSA': 4, 'TISA': 4, 'OSAT': 4, 'TAIS': 4, 'LIEUS': 3.0, 'MALT': 1.7999999999999998, 'OTAIS': 5, 'ASTI': 4, 'OTAS': 4, 'MAIL': 1.7999999999999998, 'IRIDEE': 4.5, 'OIT': 3, 'OSAIT': 5, 'LIEUSE': 3.5, 'TAOS': 4}",59,1.7999999999999998,3,3,4,4.177966101694915,3,6,11
204,1,9,"{'POILAT': 5.0, 'POILAS': 4.2, 'QAT': 10, 'AIT': 3, 'HIAIT': 8, 'IODEES': 4.0, 'HAIT': 7, 'THAI': 7, 'POILAI': 5.0, 'IRIDEES': 4.5, 'AIDEE': 3.5, 'HIT': 6, 'MALT': 1.7999999999999998, 'TOI': 3, 'DOINA': 6.0, 'HIA': 6, 'AIDEES': 4.0, 'TAO': 3, 'IOTA': 4, 'HAI': 6, 'HIAT': 7, 'IODEE': 3.5, 'DINAI': 6.0, 'HOT': 6, 'DINAT': 6.0, 'HIAI': 7, 'OTA': 3, 'OTAI': 4, 'MAIL': 1.7999999999999998, 'IRIDEE': 4.5, 'OIT': 3, 'NOUETS': 3.3}",32,1.7999999999999998,3,3.45,4.5,4.878125000000001,3.45,7,10
204,1,10,"{'POILAT': 5.0, 'HAIT': 7, 'POILAS': 4.2, 'QAT': 10, 'AIT': 3, 'HIAIT': 8, 'ANI': 3, 'TIAN': 4, 'MALIN': 2.3, 'IODEES': 4.0, 'TON': 3, 'TAINO': 5, 'THAI': 7, 'POILAI': 5.0, 'IRIDEES': 4.5, 'AIDEE': 3.5, 'QIN': 10, 'HIT': 6, 'HIAT': 7, 'HIA': 6, 'NOTAI': 5, 'MALT': 1.7999999999999998, 'DOINA': 6.0, 'ION': 3, 'OTAI': 4, 'AIDEES': 4.0, 'TAN': 3, 'TAO': 3, 'IOTA': 4, 'ONT': 3, 'HAI': 6, 'NIAIT': 5, 'HAN': 6, 'IODEE': 3.5, 'NAIT': 4, 'DINAI': 6.0, 'INTI': 4, 'HOT': 6, 'DINAT': 6.0, 'HIANT': 8, 'HIAI': 7, 'TAON': 4, 'NIAT': 4, 'OTA': 3, 'NIA': 3, 'TIN': 3, 'TAIN': 4, 'TOI': 3, 'NOTA': 4, 'NIAI': 4, 'OINT': 4, 'MAIL': 1.7999999999999998, 'IRIDEE': 4.5, 'OIT': 3, 'NOUETS': 3.3, 'NIT': 3, 'THON': 7}",57,1.7999999999999998,3,3,4,4.6385964912280695,3,7,10
204,2,1,"{'NAGEA': 6.0, 'NAGEE': 6.0, 'NARRE': 5, 'ERRA': 4, 'NAGER': 6.0, 'VOUAS': 8.0, 'CEDRE': 8.0, 'CEDEE': 8.0, 'ANE': 3, 'REA': 3, 'RARE': 4, 'ORALE': 5.0, 'SORES': 5.0, 'VOUES': 8.0, 'ARE': 3, 'CEDER': 8.0}",16,3,3,4,5.5,5.625,4,8,8
204,2,2,"{'FERA': 7, 'NAGEA': 6.0, 'NAGERA': 7.0, 'NAGEE': 6.0, 'NEF': 6, 'FARE': 7, 'VOUAS': 8.0, 'NAFE': 7, 'NAGEES': 7.0, 'CEDRE': 8.0, 'NAGEAS': 7.0, 'VOUES': 8.0, 'NERF': 7, 'ANE': 3, 'REA': 3, 'FANE': 7, 'ORALE': 5.0, 'SORES': 5.0, 'CEDEE': 8.0, 'FAR': 6, 'FAN': 6, 'ARE': 3, 'FANER': 8, 'CEDER': 8.0, 'FER': 6}",25,3,3.8000000000000007,6,7,6.36,6,8,8
204,2,3,"{'CEDER': 8.0, 'FANE': 7.0, 'NAGEES': 7.0, 'CEDRE': 8.0, 'ORVAL': 8.0, 'ORALE': 5.0, 'SORES': 5.0, 'NAGEE': 6.0, 'VER': 6, 'VOUES': 8.0}",10,5,5,6,7,6.8,6,8,8
204,2,4,"{'FANA': 7.0, 'NAGEA': 6.0, 'VOUAS': 8.0, 'VAR': 6, 'CEDRE': 8.0, 'ORVAL': 8.0, 'CEDER': 8.0, 'NAGEAS': 7.0, 'FANER': 8.0}",9,6,6,7,8,7.333333333333333,7,8,8
204,2,5,"{'FANA': 7.0, 'FANERA': 9.0, 'VOUAS': 8.0, 'NAGEAS': 7.0, 'ORVAL': 8.0, 'NAGEA': 6.0}",6,6,6.5,7,7.5,7.5,7,8.5,9
204,2,6,"{'ORVAL': 8.0, 'MORAL': 6.0}",2,6,6.2,6.5,7,7,6.5,7.8,8
204,2,7,"{'ORVAL': 8.0, 'MORFAL': 10.0, 'MORFALE': 11.0}",3,8,8.4,9,10,9.666666666666666,9,10.8,11
204,2,8,"{'ORVAL': 8.0, 'MORFAL': 10.0, 'MORFALE': 11.0, 'ORVALE': 9.0}",4,8,8.3,8.75,9.5,9.5,8.75,10.7,11
204,2,9,"{'MORFAL': 10.0, 'CEDRE': 8.0, 'MORFALE': 11.0, 'CEDER': 8.0, 'ORVAL': 8.0, 'ORVALE': 9.0}",6,8,8,8,8.5,9,8,10.5,11
204,2,10,"{'ORVAL': 8.0, 'MORFAL': 10.0, 'MORFALE': 11.0, 'ORVALE': 9.0}",4,8,8.3,8.75,9.5,9.5,8.75,10.7,11
205,1,1,"{'NEO': 3, 'NON': 3, 'IODEE': 3.5, 'NONNE': 5, 'NEON': 4, 'NONE': 4, 'TENUE': 3.0, 'EON': 3, 'POILE': 7.0, 'NUEES': 5.0, 'DOINA': 3.5, 'NOUES': 5.0, 'LIEUE': 3.0}",13,3,3,3,3.5,4,3,5,7
205,1,2,"{'POILE': 7.0, 'NUEES': 5.0, 'LIEUX': 12.0, 'ENOUES': 6.0, 'NOUEES': 6.0, 'TENUE': 3.0, 'LIEUE': 3.0}",7,3,3,4,6,6,4,9.000000000000002,12
205,1,3,"{'LIEUES': 3.5, 'NES': 3, 'POILS': 7.0, 'POILAS': 7.6, 'POILE': 7.0, 'SEN': 3, 'TENUE': 3.0, 'LIEUS': 3.0, 'DINAS': 3.5, 'NUEES': 5.0, 'ENOUES': 6.0, 'TENUS': 3.0, 'NOUEES': 6.0, 'LIEUSE': 3.5}",14,3,3,3,3.5,4.578571428571428,3,7,7.6
205,1,4,"{'SUE': 3, 'UNS': 3, 'POILAS': 7.6, 'USE': 3, 'DINAS': 3.5, 'NUEES': 5.0, 'TENUES': 3.5, 'UNE': 3, 'ENOUES': 6.0, 'NOUEES': 6.0, 'UNES': 4, 'NES': 3, 'EUS': 3, 'POILU': 7.0, 'LIEUES': 3.5, 'ETENDU': 3.6, 'POILS': 7.0, 'NUES': 4, 'TENDUS': 3.6, 'NUS': 3, 'LIEUS': 3.0, 'POILE': 7.0, 'TENUS': 3.0, 'SEN': 3, 'NUE': 3, 'LIEUSE': 3.5, 'TENDUE': 3.6}",27,3,3,3,3.5,4.125925925925926,3,7,7.6
205,1,5,"{'POILU': 7.0, 'ETENDU': 3.6, 'POILES': 8.0, 'ETENDUE': 4.1, 'POILE': 7.0, 'NUEES': 5.0, 'QUE': 10, 'UNE': 3, 'ENOUES': 6.0, 'NOUEES': 6.0, 'POILUS': 8.0, 'NUE': 3}",12,3,3.06,3.975,6,5.891666666666667,3.975,8,10
205,1,6,{},0,0,0,0,0,NA,0,0,0
205,1,7,"{'POILU': 7.0, 'POILUS': 8.0, 'MAUL': 1.7999999999999998}",3,1.7999999999999998,2.84,4.4,7,5.6000000000000005,4.4,7.8,8
205,1,8,"{'IRIDEES': 4.5, 'MALI': 1.7999999999999998, 'MAIL': 1.7999999999999998, 'IRIDEE': 3.6, 'POILAI': 7.6, 'DINAI': 3.5}",6,1.7999999999999998,1.7999999999999998,2.2249999999999996,3.55,3.7999999999999994,2.2249999999999996,6.05,7.6
205,1,9,"{'ETENDU': 3.6, 'POILUES': 9.0, 'POILES': 8.0, 'ETENDUE': 4.1, 'POILUE': 7.5, 'POILE': 7.0, 'NUEES': 5.0, 'MALIN': 2.8, 'ENOUES': 6.0, 'NOUEES': 6.0, 'MALE': 1.7999999999999998, 'ETENDUS': 3.8, 'TENDUES': 3.8}",13,1.7999999999999998,2.96,3.8,5,5.261538461538461,3.8,7.9,9
205,1,10,"{'MALIN': 2.8, 'IDEELS': 4.0, 'QUEL': 11.0, 'IDEEL': 3.5}",4,2.8,3.01,3.325,3.75,5.325,3.325,8.900000000000002,11
205,2,1,"{'NAGEA': 6.0, 'NAGERA': 7.0, 'VAN': 6, 'ORVAL': 8.0, 'ANS': 3, 'VANS': 7, 'VOUAS': 8.0, 'VAS': 6, 'POSAS': 7.0, 'NAGES': 6.0, 'CEDES': 8.0}",11,3,6,6,7,6.545454545454546,6,8,8
205,2,2,{'ORVAL': 8.0},1,8,8,8,8,8,8,8,8
205,2,3,"{'NUAGES': 7.0, 'NUAGE': 6.0, 'NAGEUR': 7.0, 'FAUNE': 8.0, 'ORVAL': 8.0}",5,6,6.4,7,7,7.2,7,8,8
205,2,4,"{'NUAGES': 7.0, 'NAGEUR': 7.0, 'NUAGE': 6.0, 'ORVAL': 8.0, 'FANEUR': 9.0, 'FAUNE': 8.0}",6,6,6.5,7,7.5,7.5,7,8.5,9
205,2,5,"{'NUAGES': 7.0, 'NUAGE': 6.0, 'FANEUR': 9.0, 'NAGEUR': 7.0, 'ORVAL': 8.0, 'CEDEES': 9.0, 'NUS': 3, 'FANERAS': 10.0, 'FANS': 7.0, 'UNS': 3, 'VUS': 6, 'FANES': 8.0, 'POSAS': 7.0, 'CEDES': 8.0, 'FAUNE': 8.0}",15,3,4.2,6.5,7,7.066666666666666,6.5,9,10
205,2,6,"{'FANEE': 8.0, 'MORALE': 7.0, 'ORVAL': 8.0, 'NAGEES': 7.0, 'VUES': 7.0, 'ORALE': 5.0, 'SORES': 5.0, 'NAGEE': 6.0, 'VOUES': 8.0}",9,5,5,6,7,6.777777777777778,6,8,8
205,2,7,"{'FANEE': 8.0, 'NAGEE': 6.0, 'ORALE': 5.0, 'ORVAL': 8.0, 'SORES': 5.0, 'FLANERA': 10.0, 'VOUES': 8.0, 'NAGEES': 7.0, 'LEV': 6, 'VUES': 7.0, 'FLAN': 7.0, 'FLANER': 9.0, 'FLANE': 8.0}",13,5,5.2,6,7,7.230769230769231,6,8.8,10
205,2,8,"{'FANA': 7.0, 'NAGEA': 6.0, 'VAN': 6, 'VAL': 6, 'ORVALE': 9.0, 'AMORAL': 7.0, 'ORVAL': 8.0, 'VLAN': 7, 'AMORALE': 8.0, 'VOUAS': 8.0, 'NAGEAS': 7.0, 'FLANERA': 10.0, 'FLAN': 7.0, 'FLANER': 9.0, 'FLANE': 8.0}",15,6,6,7,7,7.533333333333333,7,9,10
205,2,9,"{'POSAT': 7.0, 'VLAN': 7.0, 'FLANERA': 10.0, 'SORTS': 5.0, 'FLAN': 7.0, 'FLANE': 8.0, 'POSTA': 7.0}",7,5,6.200000000000001,7,7,7.285714285714286,7,8.8,10
205,2,10,"{'POSAT': 7.0, 'SORTS': 5.0, 'CEDRE': 8.0, 'POSTA': 7.0}",4,5,5.6000000000000005,6.5,7,6.75,6.5,7.7,8
206,1,1,"{'REZ': 12, 'REES': 4, 'ERS': 3, 'RIDEE': 6.0, 'ERSE': 4, 'DINAS': 3.5, 'NUEES': 3.0, 'TENUE': 3.0, 'ENOUES': 3.3, 'NOUEES': 3.3, 'ERE': 3, 'REE': 3, 'ERES': 4, 'POILS': 4.0, 'DINAR': 3.5, 'ZEE': 12, 'LIEUR': 5.0, 'LIEUS': 5.0, 'POILE': 4.0, 'IDEES': 6.0, 'SERE': 4, 'NUERS': 3.0, 'LIEUE': 5.0, 'SEREZ': 14, 'ZEES': 13, 'REEZ': 13, 'TENUS': 3.0}",27,3,3,3.15,4,5.54074074074074,3.15,12.400000000000002,14
206,1,2,"{'REZ': 12, 'RIDEES': 7.0, 'DINAR': 3.5, 'RIDEE': 6.0, 'ZEE': 12, 'TENUE': 3.0, 'LIEUE': 5.0, 'POILE': 4.0, 'NUEES': 3.0, 'LIEUR': 5.0, 'ENOUES': 3.3, 'NUERS': 3.0, 'NOUEES': 3.3, 'ERE': 3, 'REEZ': 13, 'REE': 3}",16,3,3,3,3.75,5.56875,3,12,13
206,1,3,"{'REZ': 12, 'REEZ': 13, 'LIEUR': 5.0, 'ZELE': 13, 'DINAR': 3.5, 'RIDEE': 6.0, 'ZEE': 12, 'TENUE': 3.0, 'POILE': 4.0, 'NUEES': 3.0, 'IDEELS': 7.0, 'IDEEL': 6.0, 'ENOUES': 3.3, 'RIDEES': 7.0, 'NOUEES': 3.3, 'LEZ': 12, 'ERE': 3, 'REEL': 4, 'NUERS': 3.0, 'REE': 3}",20,3,3,3.2249999999999996,4.5,6.305,3.2249999999999996,12.1,13
206,1,4,"{'REZ': 12, 'NUERS': 3.0, 'RIDEE': 6.0, 'MER': 4, 'REM': 4, 'NUEES': 3.0, 'IDEELS': 7.0, 'LIEUR': 5.0, 'ENOUES': 3.3, 'NOUEES': 3.3, 'ETENDU': 3.6, 'DINAR': 3.5, 'MEL': 4, 'LEM': 4, 'IDEEL': 6.0, 'POILE': 4.0, 'TENURE': 4.0, 'RIDEES': 7.0, 'MERL': 5, 'LEZ': 12, 'POILES': 4.2, 'TENDUE': 3.6}",22,3,3.3,3.6,4,5.068181818181818,3.6,7,12
206,1,5,"{'AIDEE': 6.0, 'RIDEES': 7.0, 'POILAS': 4.2, 'RAM': 4, 'QUEL': 1.0, 'IDEEL': 6.0, 'DINAR': 3.5, 'IDEELS': 7.0, 'LIEUR': 5.0, 'TENURE': 4.0, 'NUERS': 3.0, 'AIDEES': 7.0, 'RAZ': 12, 'MAL': 4}",14,1,3.15,4,4.6,5.264285714285714,4,7,12
206,1,6,"{'RUA': 3, 'POILAS': 4.2, 'MUR': 4, 'MURA': 5, 'AZUR': 13, 'MURAL': 6, 'DINAR': 3.5, 'IDEELS': 7.0, 'LIEUR': 5.0, 'LUMA': 5, 'POILU': 4.0, 'AIDEE': 6.0, 'ALU': 3, 'NUERS': 3.0, 'RAM': 4, 'QUEL': 1.0, 'IDEEL': 6.0, 'MAL': 4, 'RUZ': 12, 'ZAMU': 14, 'MUA': 4, 'TENURE': 4.0, 'RIDEES': 7.0, 'AIDEES': 7.0, 'POILUS': 4.2, 'ARUM': 5, 'RAZ': 12, 'MAUL': 5}",28,1,3,4,5,5.746428571428571,4,12,14
206,1,7,"{'POILU': 4.0, 'DINAR': 3.5, 'NUERS': 3.0, 'VIDEES': 10.0, 'LIEUR': 5.0, 'TENURE': 4.0, 'RIDEES': 7.0, 'RUZ': 12, 'MAUL': 5.0, 'VIDEE': 9.0}",10,3,3.4499999999999997,4,5,6.25,4,10.2,12
206,1,8,"{'POILU': 4.0, 'IODEES': 7.0, 'VIDEES': 10.0, 'VIDEE': 9.0, 'IODEE': 6.0, 'MAUL': 5.0, 'DOINA': 3.5, 'ZOU': 12}",8,3.5,3.85,4.75,6.5,7.0625,4.75,10.6,12
206,1,9,"{'AIDEE': 6.0, 'IODEES': 7.0, 'VIDEES': 10.0, 'VIDEE': 9.0, 'POILAS': 4.2, 'IODEE': 6.0, 'AIDEES': 7.0, 'DOINA': 3.5}",8,3.5,3.99,5.55,6.5,6.5875,5.55,9.3,10
206,1,10,"{'IRIDEES': 8.0, 'AIDEE': 6.0, 'VIA': 6, 'VIDEES': 10.0, 'POILAS': 4.2, 'IODEE': 6.0, 'DINAI': 3.5, 'DOINA': 3.5, 'IODEES': 7.0, 'AIDEES': 7.0, 'MAIL': 5.0, 'IRIDEE': 6.1, 'POILAI': 4.6, 'VIDEE': 9.0}",14,3.5,3.71,4.699999999999999,6,6.135714285714285,4.699999999999999,8.700000000000001,10
206,2,1,"{'SES': 3, 'NAGEE': 6.0, 'ORALE': 5.0, 'SORES': 5.0, 'EWE': 12, 'CEDEE': 8.0, 'EWES': 13, 'NAGES': 6.0, 'ESSE': 4, 'POSAS': 7.0, 'CEDES': 8.0, 'VOUES': 8.0}",12,3,4.1,5,6.5,7.083333333333333,5,11.6,13
206,2,2,"{'EWEES': 14, 'FANE': 7.0, 'NAGEE': 6.0, 'EWEE': 13, 'ORALE': 5.0, 'SORES': 5.0, 'EWE': 12, 'CEDEE': 8.0, 'EWES': 13, 'FANS': 7.0, 'NAGEES': 7.0, 'POSAS': 7.0, 'CEDES': 8.0, 'VOUES': 8.0}",14,5,5.300000000000001,7,7.5,8.571428571428571,7,13,14
206,2,3,"{'FANA': 7.0, 'FANEE': 8.0, 'NAGERA': 7.0, 'NAGEE': 6.0, 'CEDES': 8.0, 'ORALE': 5.0, 'SORES': 5.0, 'CEDEES': 9.0, 'ASE': 3, 'VOUES': 8.0, 'EWES': 13, 'FANS': 7.0, 'VOUAS': 8.0, 'NAGEES': 7.0, 'FANES': 8.0, 'POSAS': 7.0, 'EWE': 12, 'NAGEAS': 7.0, 'NAGEA': 6.0}",19,3,5,6.5,7,7.421052631578948,6.5,9.599999999999998,13
206,2,4,"{'FANEE': 8.0, 'NAGEE': 6.0, 'ORALE': 5.0, 'SORES': 5.0, 'CEDEES': 9.0, 'EWE': 12, 'VOUES': 8.0, 'EWES': 13, 'FANS': 7.0, 'NAGEES': 7.0, 'FANES': 8.0, 'POSAS': 7.0, 'NAGERAS': 8.0, 'CEDES': 8.0}",14,5,5.300000000000001,7,8,7.928571428571429,7,11.100000000000003,13
206,2,5,"{'FANEE': 8.0, 'NEE': 3, 'NAGEE': 6.0, 'YEN': 12, 'ORALE': 5.0, 'SORES': 5.0, 'NEY': 12, 'EWE': 12, 'VOUES': 8.0, 'NAGEES': 7.0, 'VUES': 7.0}",11,3,5,5.5,7,7.727272727272728,5.5,12,12
206,2,6,"{'FANEE': 8.0, 'MORALE': 7.0, 'NAGEE': 6.0, 'NAGEES': 7.0, 'VUES': 7.0, 'ORALE': 5.0, 'SORES': 5.0, 'VOUES': 8.0}",8,5,5,5.75,7,6.625,5.75,8,8
206,2,7,"{'FLANERA': 10.0, 'FLAN': 7.0, 'FLANER': 9.0, 'FLANE': 8.0}",4,7,7.3,7.75,8.5,8.5,7.75,9.7,10
206,2,8,"{'FLANERA': 10.0, 'FLAN': 7.0, 'FLANER': 9.0, 'FLANE': 8.0, 'VLAN': 7.0}",5,7,7,7,8,8.2,7,9.6,10
206,2,9,"{'FANEE': 8.0, 'NAGEE': 6.0, 'NAGEES': 7.0, 'VUES': 7.0, 'SORES': 5.0, 'VOUES': 8.0}",6,5,5.5,6.25,7,6.833333333333333,6.25,8,8
206,2,10,"{'FAON': 7.0, 'VOUES': 8.0}",2,7,7.1,7.25,7.5,7.5,7.25,7.9,8
207,1,1,"{'ADO': 4, 'RAND': 5, 'DON': 4, 'RANDO': 6, 'IODEE': 3.5, 'RODA': 5, 'RIDEE': 3.5, 'RADON': 6, 'DONA': 5, 'TENDU': 6.0, 'DORA': 5, 'DOINA': 6.0, 'NOUES': 3.0, 'ADON': 5, 'ORNA': 4, 'AIDEE': 3.5, 'RAD': 4, 'DINAR': 6.0, 'DAN': 4, 'DAO': 4, 'LIEUR': 3.0, 'ROND': 5, 'POILA': 4.0, 'NORD': 5, 'NUERS': 3.0, 'NARD': 5, 'DARON': 6}",27,3,3.3000000000000003,4,5,4.574074074074074,4,6,6
207,1,2,"{'POILAT': 4.4, 'ADON': 5.0, 'DONT': 5.0, 'TAR': 3, 'TAPER': 2.8, 'RIDEE': 3.5, 'LIEUR': 3.0, 'DONA': 5.0, 'DINAR': 6.0, 'RAT': 3, 'AIDEE': 3.5, 'DINAT': 6.0, 'NUERS': 3.0, 'ART': 3}",14,2.8,3,3,3.5,4.014285714285714,3,5.700000000000001,6
207,1,3,"{'DONA': 5.0, 'TAPERA': 3.8, 'ADON': 5.0, 'AIDEE': 3.5, 'DINAT': 6.0, 'POILAT': 4.4, 'TAN': 3}",7,3,3.3000000000000003,3.65,4.4,4.385714285714286,3.65,5.4,6
207,1,4,"{'TAPERAS': 4.8, 'DONS': 5.0, 'POILAS': 4.4, 'TAPES': 2.8, 'POILAT': 4.4, 'DINARS': 6.7, 'LIEUS': 3.0, 'DINAS': 6.0, 'TENUS': 5.0, 'IDEES': 3.5, 'DINAT': 6.0, 'RIDEES': 4.1, 'POILS': 4.0}",13,2.8,3.1,4,4.4,4.592307692307693,4,6,6.7
207,1,5,"{'DONS': 5.0, 'POILAS': 4.4, 'TAPES': 2.8, 'IDEES': 3.5, 'DINARS': 6.7, 'DINANT': 7.0, 'LIEUS': 3.0, 'DINAS': 6.0, 'RIDEES': 4.1, 'TENUS': 5.0, 'VINS': 4.6, 'POILS': 4.0}",12,2.8,3.05,3.875,4.5,4.675,3.875,6.630000000000001,7
207,1,6,"{'POILS': 4.0, 'DONS': 5.0, 'POILAS': 4.4, 'TAPES': 2.8, 'IDEES': 3.5, 'DINARS': 6.7, 'DINANT': 7.0, 'LIEUS': 3.0, 'TENDU': 6.0, 'RIDEES': 4.1, 'VINS': 4.6, 'VAINS': 4.9, 'TENUS': 5.0}",13,2.8,3.1,4,4.6,4.6923076923076925,4,6.5600000000000005,7
207,1,7,"{'DONS': 5.0, 'POILAS': 4.4, 'TAPES': 2.8, 'IDEES': 3.5, 'DINARS': 6.7, 'DINANT': 7.0, 'LIEUS': 3.0, 'RIDEES': 4.1, 'TENDUS': 7.0, 'TENUS': 5.0, 'VINS': 4.6, 'VAINS': 4.9, 'POILS': 4.0}",13,2.8,3.1,4,4.6,4.769230769230769,4,6.94,7
207,1,8,"{'NUERS': 3.0, 'DINARS': 7.0, 'DINANT': 7.0, 'LIEUR': 3.0}",4,3,3,3,5,5,3,7,7
207,1,9,"{'ETAPE': 2.8, 'POILE': 4.0, 'ETENDU': 7.0, 'DINANT': 7.0, 'VINE': 4.6, 'TENUE': 5.0, 'TAPEE': 2.8, 'NUEES': 3.0, 'LIEUE': 3.0, 'TENDUES': 8.0, 'ETENDUS': 8.0, 'TENDUE': 7.0}",12,2.8,2.82,3,4.8,5.183333333333334,3,7.9,8
207,1,10,{'DINANT': 7.0},1,7,7,7,7,7,7,7,7
207,2,1,"{'NAGEE': 6.0, 'CEDEE': 8.0, 'ORALE': 5.0, 'SORES': 5.0, 'SOIRS': 5.0, 'BEE': 5, 'POSAI': 7.0, 'VOUES': 8.0}",8,5,5,5,5.5,6.125,5,8,8
207,2,2,"{'NAGEE': 6.0, 'ORALE': 5.0, 'SORES': 5.0, 'BEE': 5, 'SOIRS': 5.0, 'EUE': 3, 'BUEE': 6, 'NUAGE': 6.0, 'VOUES': 8.0, 'BEU': 5, 'BUE': 5}",11,3,5,5,5,5.363636363636363,5,6,8
207,2,3,"{'CUBE': 8, 'NAGEE': 6.0, 'SORES': 5.0, 'BUE': 5, 'BIC': 7, 'VOUES': 8.0, 'ECU': 5, 'BEC': 7, 'ORACLE': 8.0, 'NUAGE': 6.0, 'CUBI': 8, 'BEU': 5}",12,5,5,5,6.5,6.5,5,8,8
207,2,4,{},0,0,0,0,0,NA,0,0,0
207,2,5,"{'CEDER': 8.0, 'CUBER': 9.0, 'NAGER': 6.0, 'CEDRE': 8.0}",4,6,6.6,7.5,8,7.75,7.5,8.7,9
207,2,6,"{'SORES': 5.0, 'NAGEE': 6.0, 'CUBEE': 9.0, 'VOUES': 8.0}",4,5,5.300000000000001,5.75,7,7,5.75,8.7,9
207,2,7,"{'SORES': 5.0, 'POUPEE': 10.0, 'NAGEE': 6.0, 'VOUES': 8.0}",4,5,5.300000000000001,5.75,7,7.25,5.75,9.4,10
207,2,8,{'GOI': 4},1,4,4,4,4,4,4,4,4
207,2,9,{'GOI': 4},1,4,4,4,4,4,4,4,4
207,2,10,{'POULPE': 10.0},1,10,10,10,10,10,10,10,10
208,1,1,"{'AIDEE': 3.5, 'ANIL': 4, 'ADON': 3.0, 'LAI': 3, 'DINAI': 3.5, 'NIA': 3, 'LIA': 3, 'ANI': 3, 'IDEEL': 3.5, 'DONA': 3.0, 'AIL': 3, 'POILA': 7.0, 'NIAI': 4, 'LIN': 3, 'LIAI': 4}",15,3,3,3,3,3.566666666666667,3,4,7
208,1,2,"{'DINAR': 3.5, 'LIN': 3, 'TAPIE': 2.8, 'LIEUR': 3.0, 'NUERS': 5.0, 'DINAI': 3.5, 'POILAI': 8.0, 'RIDEE': 3.5, 'IDEEL': 3.5}",9,2.8,2.96,3,3.5,3.9777777777777774,3,5.6000000000000005,8
208,1,3,"{'LIN': 3, 'TAPIE': 2.8, 'IDEEL': 3.5, 'VIL': 6, 'VIN': 6, 'IRIDEE': 4.5, 'TAPERAI': 3.4000000000000004, 'POILAI': 8.0, 'DINAI': 3.5, 'VIDEE': 6.5}",10,2.8,2.98,3.4250000000000003,4,4.720000000000001,3.4250000000000003,6.6499999999999995,8
208,1,4,"{'LIN': 3, 'DINAI': 3.5, 'VIN': 6, 'IDEEL': 3.5, 'TAPIE': 2.8, 'VIL': 6, 'IRIDEE': 4.5, 'TAPERAI': 3.4000000000000004, 'POILAI': 8.0, 'DINANT': 4.0, 'VIDEE': 6.5, 'DINAIT': 4.0}",12,2.8,3.04,3.475,4,4.6000000000000005,3.475,6.45,8
208,1,5,"{'LIN': 3, 'DINAI': 3.5, 'IDEEL': 3.5, 'TAPERAIS': 4.3, 'TAPIE': 2.8, 'DINAIS': 4.0, 'IRIDEE': 4.5, 'TAPERAI': 3.4000000000000004, 'POILAI': 8.0, 'DINANT': 4.0, 'DINAIT': 4.0}",11,2.8,3,3.45,4,4.090909090909091,3.45,4.5,8
208,1,6,"{'ANIL': 4, 'ADON': 3.0, 'LIA': 3, 'VINA': 7.0, 'DINANT': 4.0, 'LIN': 3, 'TAPERAIS': 4.3, 'DONA': 3.0, 'AIL': 3, 'TAPERAI': 3.4000000000000004, 'POILAI': 8.0, 'LIAI': 4, 'AIDEE': 3.5, 'LAI': 3, 'NIA': 3, 'ANI': 3, 'IDEEL': 3.5, 'TAPIE': 2.8, 'NIAI': 4, 'DINAIS': 4.0, 'IRIDEE': 4.5, 'DINAI': 3.5, 'DINAIT': 4.0}",23,2.8,3,3,3.5,3.847826086956522,3,4.46,8
208,1,7,"{'ANIL': 4, 'NABI': 6, 'LIA': 3, 'IBN': 5, 'DINANT': 4.0, 'BILAN': 7, 'DONA': 3.0, 'AIL': 3, 'BAN': 5, 'BAL': 5, 'POILAI': 8.0, 'BAIN': 6, 'BAI': 5, 'AIDEE': 3.5, 'ALIBI': 7, 'BAIL': 6, 'BLINI': 7, 'IDEEL': 3.5, 'TAPIE': 2.8, 'LIN': 3, 'ADON': 3.0, 'VINA': 7.0, 'DINAI': 3.5, 'TAPERAIS': 4.3, 'TAPERAI': 3.4000000000000004, 'BANI': 6, 'LIAI': 4, 'LAI': 3, 'BILA': 6, 'NIB': 5, 'BILAI': 7, 'NIA': 3, 'BINA': 6, 'ANI': 3, 'BINAI': 7, 'NIAI': 4, 'DINAIS': 4.0, 'IRIDEE': 4.5, 'BRIDEE': 6.5, 'DINAIT': 4.0}",40,2.8,3,3.475,4.4,4.775,3.475,7,8
208,1,8,"{'ETAPE': 2.8, 'POILE': 7.0, 'ETENDU': 4.0, 'DINAI': 3.5, 'TENDUE': 4.0, 'VAINE': 7.3, 'VINE': 7.0, 'TENUE': 3.0, 'TAPERAIS': 4.3, 'TAPEE': 2.8, 'NUEES': 5.0, 'TAPIE': 2.8, 'DINAIS': 4.0, 'LIEUE': 3.0, 'IRIDEE': 4.5, 'TAPERAI': 3.4000000000000004, 'POILAI': 8.0, 'ETENDUS': 4.7, 'DINAIT': 4.0, 'TENDUES': 4.7}",20,2.8,2.8,3.3000000000000003,4,4.49,3.3000000000000003,7.03,8
208,1,9,"{'NUERS': 5.0, 'TAPERAIS': 4.3, 'TAPIE': 2.8, 'DINAIS': 4.0, 'IRIDEE': 4.5, 'TAPERAI': 3.4000000000000004, 'POILAI': 8.0, 'DINAI': 3.5, 'LIEUR': 3.0, 'DINAIT': 4.0}",10,2.8,2.98,3.4250000000000003,4,4.25,3.4250000000000003,5.299999999999999,8
208,1,10,"{'NUERS': 5.0, 'TAPERAIS': 4.3, 'TAPIE': 2.8, 'DINAIS': 4.0, 'IRIDEE': 4.5, 'TAPERAI': 3.4000000000000004, 'POILAI': 8.0, 'DINAI': 3.5, 'LIEUR': 3.0, 'DINAIT': 4.0}",10,2.8,2.98,3.4250000000000003,4,4.25,3.4250000000000003,5.299999999999999,8
208,2,1,"{'EMU': 4, 'NAGEE': 6.0, 'MOUE': 5, 'JEU': 10, 'ORALE': 5.0, 'SORES': 5.0, 'MEO': 4, 'MOU': 4, 'VOUES': 8.0, 'MUE': 4, 'JOUE': 11, 'MORAL': 6.0, 'NUAGE': 6.0, 'CEDEE': 8.0, 'EMOU': 5}",15,4,4,4.5,5,6.066666666666666,4.5,9.2,11
208,2,2,"{'MORALE': 7.0, 'NUAGE': 6.0, 'MORAL': 6.0, 'MOU': 4}",4,4,4.6,5.5,6,5.75,5.5,6.7,7
208,2,3,"{'OHM': 7, 'OUH': 6, 'HUM': 7, 'MOU': 4, 'MORALE': 7.0, 'HOU': 6, 'MORAL': 6.0, 'NUAGE': 6.0}",8,4,5.4,6,6,6.125,6,7,7
208,2,4,"{'NUAGE': 6.0, 'HUN': 6, 'OUH': 6, 'HOU': 6}",4,6,6,6,6,6,6,6,6
208,2,5,{'NUAGE': 6.0},1,6,6,6,6,6,6,6,6
208,2,6,"{'POUPE': 9.0, 'NUAGE': 6.0}",2,6,6.300000000000001,6.75,7.5,7.5,6.75,8.7,9
208,2,7,{'NUAGE': 6.0},1,6,6,6,6,6,6,6,6
208,2,8,"{'NEO': 3, 'NAGEE': 6.0, 'JEUN': 11, 'JEU': 10, 'EON': 3, 'UNE': 3, 'NEY': 12, 'NUAGE': 6.0, 'OYE': 12, 'NOUE': 4, 'YUE': 12, 'NOYE': 13, 'YEN': 12, 'SORES': 5.0, 'VOUES': 8.0, 'JOUE': 11, 'NUE': 3}",17,3,3,4,8,7.882352941176471,4,12,13
208,2,9,"{'GOJI': 12.0, 'JOUG': 12, 'NUAGE': 6.0}",3,6,7.200000000000001,9,12,10,9,12,12
208,2,10,{},0,0,0,0,0,NA,0,0,0
209,1,1,"{'POILAT': 4.4, 'PAR': 5, 'PAT': 5, 'DONT': 3.0, 'TAPER': 7, 'PET': 5, 'TARE': 4, 'EPAR': 6, 'RAPT': 6, 'DONA': 3.0, 'RATE': 4, 'PART': 6, 'PATE': 6, 'PATRE': 7, 'REAT': 4, 'ATRE': 4, 'REA': 3, 'RAPE': 6, 'PRE': 5, 'AIDEE': 6.0, 'PETA': 6, 'TAR': 3, 'RAT': 3, 'TENUE': 3.0, 'POILE': 4.0, 'PARE': 6, 'RAP': 5, 'NUERS': 3.0, 'TER': 3, 'APRE': 6, 'EPART': 7, 'ADON': 3.0, 'PARTE': 7, 'APTE': 6, 'RIDEE': 6.0, 'TEP': 5, 'NUEES': 3.0, 'DINAT': 3.5, 'PRET': 6, 'ART': 3, 'DINAR': 3.5, 'ETA': 3, 'PATER': 7, 'LIEUR': 5.0, 'PRETA': 7, 'TAPE': 6, 'ARE': 3, 'LIEUE': 5.0}",48,3,3,3,5,4.8,3,7,7
209,1,2,"{'POILAT': 4.4, 'DONT': 3.0, 'DINAR': 3.5, 'DINAT': 3.5, 'NUERS': 3.0, 'LIEUR': 5.0}",6,3,3,3.125,3.5,3.733333333333333,3.125,4.7,5
209,1,3,"{'DONA': 3.0, 'DINAR': 3.5, 'ADON': 3.0, 'AIDEE': 6.0, 'NUERS': 3.0, 'LIEUR': 5.0}",6,3,3,3,3.25,3.9166666666666665,3,5.5,6
209,1,4,"{'TAPERAS': 7.6, 'DONS': 3.0, 'ADON': 3.0, 'POILAS': 4.4, 'TAPES': 7.0, 'AIDEE': 6.0, 'VINA': 4.6, 'DINARS': 4.5, 'VAIN': 4.6, 'LIEUS': 5.0, 'DONA': 3.0, 'TENUS': 3.0, 'IDEES': 6.0, 'RIDEES': 6.6, 'VINS': 4.6, 'DINAS': 3.5, 'POILS': 4.0}",17,3,3,3.5,4.6,4.729411764705882,3.5,6.76,7.6
209,1,5,"{'DONA': 3.0, 'AIDEE': 6.0, 'ADON': 3.0, 'VINA': 4.6, 'VAIN': 4.6, 'IDEEL': 6.0}",6,3,3,3.4,4.6,4.533333333333334,3.4,6,6
209,1,6,{'IDEEL': 6.0},1,6,6,6,6,6,6,6,6
209,1,7,"{'NUERS': 3.0, 'DINARS': 4.0, 'LIEUR': 5.0, 'IDEEL': 6.0}",4,3,3.3,3.75,4.5,4.5,3.75,5.7,6
