sessionID,subjectID,subject,group,repetition,period,extended_word,hand,role,letters_added,new_word,payoff,royalties,royalties_earned,royalties_spent,timeout,vote,IPregime
1,101,1,1,1,1,NA,QJWET,1,JET,JET,10,50,3,0,NA,1,IP
1,101,1,1,1,2,NA,QWU,1,NA,NA,0,NA,0,0,NA,1,IP
1,101,1,1,1,3,NA,QWUE,1,QUE,QUE,10,60,0,0,NA,1,IP
1,101,1,1,1,4,JET,WS,1,S,JETS,11,50,0,0,NA,1,IP
1,101,1,1,1,5,NA,WB,1,NA,NA,0,0,0,0,1,1,IP
1,101,1,1,1,6,NA,WBU,1,NA,NA,0,0,0,0,1,1,IP
1,101,1,1,1,7,NA,WBUO,1,NA,NA,0,NA,5.5,0,NA,1,IP
1,101,1,1,1,8,POSA,WBUOT,1,T,POSTA,7,40,5.5,0,NA,1,IP
1,101,1,1,1,9,NA,WBUOD,1,NA,NA,0,NA,0,0,NA,1,IP
1,101,1,1,1,10,JETS,WBUODA,1,A,JETAS,12,40,0,0,NA,1,IP
1,101,1,1,2,1,NA,MATIF,1,NA,NA,0,NA,0,0,NA,1,noIP
1,101,1,1,2,2,NA,MATIFO,1,MOTIF,MOTIF,9,NA,0,0,NA,1,noIP
1,101,1,1,2,3,POIL,AA,1,A,POILA,7,NA,0,0,NA,1,noIP
1,101,1,1,2,4,NA,AD,1,NA,NA,0,NA,0,0,NA,1,noIP
1,101,1,1,2,5,NA,ADA,1,ADA,ADA,4,NA,0,0,NA,1,noIP
1,101,1,1,2,6,POILA,I,1,I,POILAI,8,NA,0,0,NA,1,noIP
1,101,1,1,2,7,NA,L,1,NA,NA,0,NA,0,0,NA,1,noIP
1,101,1,1,2,8,MOTIFS,LE,1,E,EMOTIFS,11,NA,0,0,NA,1,noIP
1,101,1,1,2,9,LAMAT,LP,1,P,LAMPAT,9,NA,0,0,NA,1,noIP
1,101,1,1,2,10,LAMPAT,LI,1,I,LAMPAIT,10,NA,0,0,NA,1,noIP
1,102,2,1,1,1,POSA,FBATL,2,T,POSAT,4,100,0,3,NA,1,IP
1,102,2,1,1,2,NA,FBALO,2,LABO,LABO,6,60,0,0,NA,1,IP
1,102,2,1,1,3,"NAGE",FR,2,R,"NAGER",6,70,3.2,0,NA,1,IP
1,102,2,1,1,4,NA,FB,2,NA,NA,0,0,0,0,1,1,IP
1,102,2,1,1,5,"NAGER",FBA,2,A,"NAGERA",7,80,0,0,NA,1,IP
1,102,2,1,1,6,NA,FBM,2,NA,NA,0,0,0,0,1,1,IP
1,102,2,1,1,7,NA,FBMB,2,NA,NA,0,NA,0,0,NA,1,IP
1,102,2,1,1,8,NA,FBMBT,2,NA,NA,0,0,0,0,1,1,IP
1,102,2,1,1,9,NA,FBMBTE,2,NA,NA,0,NA,0,0,1,1,IP
1,102,2,1,1,10,"NAGE",FBMBTEM,2,E,"NAGEE",6,100,0,0,NA,1,IP
1,102,2,1,2,1,NA,"NAOTA",2,NA,NA,0,0,0,0,1,1,noIP
1,102,2,1,2,2,NA,"NAOTAO",2,NA,NA,0,NA,0,0,NA,1,noIP
1,102,2,1,2,3,POILA,"NAOTAOE",2,T,POILAT,8,NA,0,0,NA,1,noIP
1,102,2,1,2,4,POILE,"NAOAOET",2,E,POILEE,8,NA,0,0,NA,1,noIP
1,102,2,1,2,5,NA,"NAOAOTL",2,NA,NA,0,NA,0,0,1,1,noIP
1,102,2,1,2,6,NA,"NAOAOTLM",2,LAMA,LAMA,5,NA,0,0,NA,1,noIP
1,102,2,1,2,7,POILAI,NOOTE,2,T,POILAIT,9,NA,0,0,NA,1,noIP
1,102,2,1,2,8,LAMAT,NOOEI,2,I,LAMAIT,7,NA,0,0,NA,1,noIP
1,102,2,1,2,9,LIEU,NOOEL,2,E,LIEUE,5,NA,0,0,NA,1,noIP
1,102,2,1,2,10,NA,NOOLP,2,POLO,POLO,6,NA,0,0,NA,1,noIP
1,103,3,1,1,1,NA,ITOFN,3,FOIN,FOIN,7,50,0,0,NA,0,IP
1,103,3,1,1,2,DINA,TU,3,T,DINAT,6,30,0,0,NA,0,IP
1,103,3,1,1,3,"NAGER",UE,3,U,"NAGEUR",3.8,20,0,3.2,NA,0,IP
1,103,3,1,1,4,DINA,EI,3,I,DINAI,6,70,0,0,NA,0,IP
1,103,3,1,1,5,SORS,EI,3,I,SOIRS,5,70,0,0,NA,0,IP
1,103,3,1,1,6,DINAI,ET,3,T,DINAIT,7,10,0,0,NA,0,IP
1,103,3,1,1,7,JETS,EE,3,E,JETES,6.5,50,0,5.5,NA,0,IP
1,103,3,1,1,8,JETES,ET,3,E,JETEES,7.5,80,0,5.5,NA,0,IP
1,103,3,1,1,9,SORS,TE,3,T,SORTS,5,60,0,0,NA,0,IP
1,103,3,1,1,10,SORTS,ER,3,E,SORTES,6,100,0,0,NA,0,IP
1,103,3,1,2,1,CEDE,SEATF,3,E,CEDEE,8,NA,0,0,NA,0,noIP
1,103,3,1,2,2,MOTIF,SATFE,3,S,MOTIFS,10,NA,0,0,NA,0,noIP
1,103,3,1,2,3,POIL,ATFEE,3,E,POILE,7,NA,0,0,NA,0,noIP
1,103,3,1,2,4,NA,ATFEK,3,KEFTA,KEFTA,17,NA,0,0,NA,0,noIP
1,103,3,1,2,5,NA,Q,3,NA,NA,0,NA,0,0,1,0,noIP
1,103,3,1,2,6,NA,QH,3,NA,NA,0,NA,0,0,1,0,noIP
1,103,3,1,2,7,LAMA,QHT,3,T,LAMAT,6,NA,0,0,NA,0,noIP
1,103,3,1,2,8,NA,QHA,3,NA,NA,0,0,0,0,1,0,noIP
1,103,3,1,2,9,NA,QHAE,3,NA,NA,0,0,0,0,1,0,noIP
1,103,3,1,2,10,TENU,QHAEE,3,E,TENUE,5,NA,0,0,NA,0,noIP
1,104,4,2,1,1,NA,RORQC,1,ROC,ROC,5,50,0,0,NA,0,IP
1,104,4,2,1,2,"NAGE",RQL,1,R,"NAGER",3.5,40,0,2.5,NA,0,IP
1,104,4,2,1,3,NA,QLP,1,NA,NA,0,NA,5,0,NA,0,IP
1,104,4,2,1,4,"NAGER",QLPA,1,A,"NAGERA",4.5,40,0,2.5,NA,0,IP
1,104,4,2,1,5,SORES,QLPK,1,P,PSORES,5.5,50,0,2.5,NA,0,IP
1,104,4,2,1,6,NA,QLKO,1,NA,NA,0,NA,0,0,1,0,IP
1,104,4,2,1,7,NA,QLKOS,1,SOL,SOL,3,100,0,0,NA,0,IP
1,104,4,2,1,8,SOL,QKE,1,E,SOLE,4,100,0,0,NA,0,IP
1,104,4,2,1,9,NA,QKR,1,NA,NA,0,NA,2,0,1,0,IP
1,104,4,2,1,10,ANE,QKRU,1,U,AUNE,1.9,100,5.5,2.1,NA,0,IP
1,104,4,2,2,1,NA,VISED,1,VISE,VISE,7,NA,0,0,NA,0,noIP
1,104,4,2,2,2,CEDE,DE,1,E,CEDEE,8,NA,0,0,NA,0,noIP
1,104,4,2,2,3,NA,DA,1,NA,NA,0,0,0,0,1,0,noIP
1,104,4,2,2,4,CEDE,DAR,1,R,CEDER,8,NA,0,0,NA,0,noIP
1,104,4,2,2,5,POILES,DAU,1,U,POILUES,9,NA,0,0,NA,0,noIP
1,104,4,2,2,6,CEDER,DAU,1,A,CEDERA,9,NA,0,0,NA,0,noIP
1,104,4,2,2,7,POIL,DUU,1,U,POILU,7,NA,0,0,NA,0,noIP
1,104,4,2,2,8,VISER,DUL,1,U,VISEUR,9,NA,0,0,NA,0,noIP
1,104,4,2,2,9,CEDE,DLZ,1,Z,CEDEZ,17,NA,0,0,NA,0,noIP
1,104,4,2,2,10,NA,DLO,1,DOL,DOL,4,NA,0,0,NA,0,noIP
1,105,5,2,1,1,NA,MGDMO,2,NA,NA,0,NA,0,0,NA,1,IP
1,105,5,2,1,2,"NAGE",MGDMOE,2,E,"NAGEE",6,50,2.5,0,NA,1,IP
1,105,5,2,1,3,ROC,MGDMOT,2,T,TROC,3.5,60,0,2.5,NA,1,IP
1,105,5,2,1,4,NA,MGDMOE,2,NA,NA,0,0,2.5,0,1,1,IP
1,105,5,2,1,5,NA,MGDMOEC,2,NA,NA,0,NA,2.5,0,1,1,IP
1,105,5,2,1,6,NA,MGDMOECS,2,COMME,COMME,9,70,2.5,0,NA,1,IP
1,105,5,2,1,7,"NAGEA",GDSN,2,S,"NAGEAS",6.5,50,0,0.5,NA,1,IP
1,105,5,2,1,8,NA,GDNE,2,NA,NA,0,NA,3,0,1,1,IP
1,105,5,2,1,9,NA,GDNEA,2,ANE,ANE,3,70,0,0,NA,1,IP
1,105,5,2,1,10,SOL,GDO,2,O,SOLO,1,70,2.1,3,NA,1,IP
1,105,5,2,2,1,POIL,BEAEQ,2,A,POILA,7,NA,0,0,NA,1,noIP
1,105,5,2,2,2,VISE,BEEQU,2,E,VISEE,8,NA,0,0,NA,1,noIP
1,105,5,2,2,3,NA,BEQUE,2,QUE,QUE,10,NA,0,0,NA,1,noIP
1,105,5,2,2,4,ORAL,BET,2,E,ORALE,5,NA,0,0,NA,1,noIP
1,105,5,2,2,5,POILS,BTU,2,U,POILUS,8,NA,0,0,NA,1,noIP
1,105,5,2,2,6,NA,BTO,2,NA,NA,0,NA,0,0,1,1,noIP
1,105,5,2,2,7,NA,BTOF,2,NA,NA,0,0,0,0,1,1,noIP
1,105,5,2,2,8,NA,BTOFN,2,TON,TON,3,NA,0,0,NA,1,noIP
1,105,5,2,2,9,POIL,BFE,2,E,POILE,7,NA,0,0,NA,1,noIP
1,105,5,2,2,10,PIN,BFE,2,E,PINE,6,NA,0,0,NA,1,noIP
1,106,6,2,1,1,SORS,PIBRX,3,I,SOIRS,5,50,0,0,NA,0,IP
1,106,6,2,1,2,DINA,PBRXK,3,R,DINAR,6,50,0,0,NA,0,IP
1,106,6,2,1,3,ROC,PBXKD,3,K,ROCK,12.5,50,0,2.5,NA,0,IP
1,106,6,2,1,4,SORS,PBXDE,3,E,SORES,5,50,0,0,NA,0,IP
1,106,6,2,1,5,"NAGE",PBXDZ,3,Z,"NAGEZ",12.5,50,2.5,2.5,NA,0,IP
1,106,6,2,1,6,"NAGE",PBXDA,3,A,"NAGEA",3.5,50,0,2.5,NA,0,IP
1,106,6,2,1,7,NA,PBXDU,3,PUB,PUB,7,70,0.5,0,NA,0,IP
1,106,6,2,1,8,"NAGEAS",XDR,3,R,"NAGERAS",5,70,0,3,NA,0,IP
1,106,6,2,1,9,NUES,XDE,3,E,NUEES,3,80,0,2,NA,0,IP
1,106,6,2,1,10,ROCK,XDS,3,S,ROCKS,13.5,100,0,2.5,NA,0,IP
1,106,6,2,2,1,VISE,SNRRY,3,R,VISER,8,NA,0,0,NA,0,noIP
1,106,6,2,2,2,VISER,SNRYA,3,A,VISERA,9,NA,0,0,NA,0,noIP
1,106,6,2,2,3,POIL,SNRYI,3,S,POILS,7,NA,0,0,NA,0,noIP
1,106,6,2,2,4,POILS,NRYIE,3,E,POILES,8,NA,0,0,NA,0,noIP
1,106,6,2,2,5,NA,NRYIP,3,NA,NA,0,NA,0,0,1,0,noIP
1,106,6,2,2,6,NA,NRYIPJ,3,PIN,PIN,5,NA,0,0,NA,0,noIP
1,106,6,2,2,7,POILU,RYJE,3,E,POILUE,8,NA,0,0,NA,0,noIP
1,106,6,2,2,8,VISEE,RYJO,3,O,VOISEE,9,NA,0,0,1,0,noIP
1,106,6,2,2,9,NA,RYJT,3,NA,NA,0,NA,0,0,1,0,noIP
1,106,6,2,2,10,NA,RYJTT,3,NA,NA,0,0,0,0,1,0,noIP
1,107,7,3,1,1,POSA,IJLTU,1,T,POSTA,7,50,0,0,NA,0,IP
1,107,7,3,1,2,POSTA,IJLUB,1,L,POSTAL,8,60,5.5,0,NA,0,IP
1,107,7,3,1,3,NA,IJUBS,1,NA,NA,0,0,2,0,1,0,IP
1,107,7,3,1,4,NA,IJUBSN,1,JUS,JUS,10,70,0,0,NA,0,IP
1,107,7,3,1,5,NA,IBNO,1,BON,BON,5,60,0,0,NA,0,IP
1,107,7,3,1,6,POSTAL,IE,1,E,POSTALE,9,60,0,0,NA,0,IP
1,107,7,3,1,7,APOSTA,IA,1,I,APOSTAI,8,70,0,1,NA,0,IP
1,107,7,3,1,8,NA,AI,1,NA,NA,0,NA,0,0,NA,0,IP
1,107,7,3,1,9,POSA,AII,1,I,POSAI,7,90,0,0,NA,0,IP
1,107,7,3,1,10,NA,AIR,1,AIR,AIR,3,100,3,0,NA,0,IP
1,107,7,3,2,1,IDEE,TVSLE,1,S,IDEES,6,NA,0,0,NA,0,noIP
1,107,7,3,2,2,IDEES,TVLEA,1,V,VIDEES,10,NA,0,0,NA,0,noIP
1,107,7,3,2,3,ORAL,TLEAA,1,E,ORALE,5,NA,0,0,NA,0,noIP
1,107,7,3,2,4,NA,TLAAF,1,FATAL,FATAL,8,NA,0,0,NA,0,noIP
1,107,7,3,2,5,NA,T,1,NA,NA,0,0,0,0,1,0,noIP
1,107,7,3,2,6,FATAL,TE,1,E,FATALE,9,NA,0,0,NA,0,noIP
1,107,7,3,2,7,IDEE,TO,1,O,IODEE,6,NA,0,0,NA,0,noIP
1,107,7,3,2,8,NA,TB,1,NA,NA,0,NA,0,0,NA,0,noIP
1,107,7,3,2,9,HUN,TBE,1,E,HUNE,7,NA,0,0,NA,0,noIP
1,107,7,3,2,10,POILU,TBE,1,E,POILUE,8,NA,0,0,NA,0,noIP
1,108,8,3,1,1,DINA,AQREE,2,R,DINAR,3.5,100,2.5,2.5,NA,0,IP
1,108,8,3,1,2,POSTA,AQEEL,2,A,APOSTA,4.5,100,0,3.5,NA,0,IP
1,108,8,3,1,3,NUES,QEELI,2,E,NUEES,3,100,0,2,NA,0,IP
1,108,8,3,1,4,NA,QELIT,2,LIT,LIT,3,100,3,0,NA,0,IP
1,108,8,3,1,5,NA,QEV,2,NA,NA,0,NA,0,0,1,0,IP
1,108,8,3,1,6,SORS,QEVX,2,E,SORES,3,100,1,2,NA,0,IP
1,108,8,3,1,7,"NAGE",QVXA,2,A,"NAGEA",6,100,1,0,NA,0,IP
1,108,8,3,1,8,NA,QVXM,2,NA,NA,0,NA,0,0,NA,0,IP
1,108,8,3,1,9,NA,QVXMF,2,NA,NA,0,NA,0,0,NA,0,IP
1,108,8,3,1,10,AIR,QVXMFQ,2,V,VAIR,4,40,0,3,NA,0,IP
1,108,8,3,2,1,ORAL,MMBPE,2,M,MORAL,6,NA,0,0,NA,0,noIP
1,108,8,3,2,2,TENDU,MBPES,2,E,TENDUE,7,NA,0,0,NA,0,noIP
1,108,8,3,2,3,TENDU,MBPSA,2,S,TENDUS,7,NA,0,0,NA,0,noIP
1,108,8,3,2,4,ORALE,MBPAS,2,M,MORALE,7,NA,0,0,NA,0,noIP
1,108,8,3,2,5,CEDER,BPASA,2,A,CEDERA,9,NA,0,0,NA,0,noIP
1,108,8,3,2,6,FATALE,BPSAU,2,S,FATALES,10,NA,0,0,NA,0,noIP
1,108,8,3,2,7,NA,BPAUU,2,NA,NA,0,NA,0,0,NA,0,noIP
1,108,8,3,2,8,MORALE,BPAUUU,2,A,AMORALE,8,NA,0,0,NA,0,noIP
1,108,8,3,2,9,NA,BPUUUE,2,PUE,PUE,5,NA,0,0,NA,0,noIP
1,108,8,3,2,10,FATAL,BUUS,2,S,FATALS,9,NA,0,0,NA,0,noIP
1,109,9,3,1,1,"NAGE",FKEUO,3,E,"NAGEE",3.5,100,2.5,2.5,NA,0,IP
1,109,9,3,1,2,NUES,FKUOD,3,O,NOUES,3,100,0,2,NA,0,IP
1,109,9,3,1,3,NA,FKUDB,3,NA,NA,0,0,0,0,1,0,IP
1,109,9,3,1,4,LIT,FKUDBD,3,U,LUIT,1,50,0,3,NA,0,IP
1,109,9,3,1,5,NA,FKDBDF,3,NA,NA,0,NA,0,0,NA,0,IP
1,109,9,3,1,6,SORES,FKDBDFC,3,B,SOBRES,7,100,2,1,NA,0,IP
1,109,9,3,1,7,NA,FKDDFCA,3,FAC,FAC,8,100,0,0,NA,0,IP
1,109,9,3,1,8,NA,KDDFF,3,NA,NA,0,NA,0,0,NA,0,IP
1,109,9,3,1,9,NA,KDDFFA,3,NA,NA,0,0,0,0,1,0,IP
1,109,9,3,1,10,FAC,KDDFFAE,3,E,FACE,9,100,0,0,NA,0,IP
1,109,9,3,2,1,TENU,RECPD,3,D,TENDU,6,NA,0,0,NA,0,noIP
1,109,9,3,2,2,NA,RECPN,3,CEP,CEP,7,NA,0,0,NA,0,noIP
1,109,9,3,2,3,CEDE,RNU,3,R,CEDER,8,NA,0,0,NA,0,noIP
1,109,9,3,2,4,NA,NUU,3,NA,NA,0,NA,0,0,NA,0,noIP
1,109,9,3,2,5,TENDUE,NUUS,3,S,TENDUES,8,NA,0,0,NA,0,noIP
1,109,9,3,2,6,POIL,NUUT,3,U,POILU,7,NA,0,0,NA,0,noIP
1,109,9,3,2,7,NA,NUTH,3,NA,NA,0,0,0,0,1,0,noIP
1,109,9,3,2,8,NA,NUTHR,3,HUN,HUN,6,NA,0,0,NA,0,noIP
1,109,9,3,2,9,NA,TRE,3,NA,NA,0,NA,0,0,1,0,noIP
1,109,9,3,2,10,PUE,TREN,3,R,PURE,6,NA,0,0,NA,0,noIP
1,110,10,4,1,1,NA,NDRIU,1,NA,NA,0,NA,0,0,NA,1,IP
1,110,10,4,1,2,NA,NDRIUN,1,DUR,DUR,4,50,0,0,NA,1,IP
1,110,10,4,1,3,SORS,NINE,1,E,SORES,3,100,2,2,NA,1,IP
1,110,10,4,1,4,NA,NINI,1,NA,NA,0,0,0,0,1,1,IP
1,110,10,4,1,5,POSA,NININ,1,I,POSAI,7,50,2,0,NA,1,IP
1,110,10,4,1,6,NA,NNINF,1,NA,NA,0,NA,0,0,1,1,IP
1,110,10,4,1,7,NA,NNINFN,1,NA,NA,0,NA,2,0,NA,1,IP
1,110,10,4,1,8,NA,NNINFNK,1,FIN,FIN,6,70,4.2,0,NA,1,IP
1,110,10,4,1,9,POSAI,NNNKT,1,T,POSAIT,8,70,2,0,NA,1,IP
1,110,10,4,1,10,FINI,NNNKR,1,R,FINIR,7.1,80,4.2,0.9,NA,1,IP
1,110,10,4,2,1,NA,IENNV,1,VIE,VIE,6,80,0,0,NA,1,IP
1,110,10,4,2,2,VIE,NNU,1,N,VINE,7,80,0,0,NA,1,IP
1,110,10,4,2,3,POILE,NUU,1,U,POILUE,4.5,80,0,3.5,NA,1,IP
1,110,10,4,2,4,POIL,NUU,1,U,POILU,4,80,0,3,NA,1,IP
1,110,10,4,2,5,NA,NUI,1,NA,NA,0,NA,2,0,NA,1,IP
1,110,10,4,2,6,MORAL,NUIE,1,E,MORALE,5.4,80,2.5,1.6,NA,1,IP
1,110,10,4,2,7,VIE,NUID,1,D,VIDE,8,80,2,0,NA,1,IP
1,110,10,4,2,8,NA,NUID,1,NUI,NUI,3,80,0,0,NA,1,IP
1,110,10,4,2,9,POIL,DA,1,A,POILA,4,80,0,3,NA,1,IP
1,110,10,4,2,10,NA,DY,1,NA,NA,0,NA,5.6,0,NA,1,IP
1,111,11,4,1,1,NA,DUTZM,2,DUT,DUT,4,80,0,0,NA,1,IP
1,111,11,4,1,2,"NAGE",ZME,2,Z,"NAGEZ",15,70,0,0,NA,1,IP
1,111,11,4,1,3,DUR,MEA,2,E,DURE,3,80,0,2,NA,1,IP
1,111,11,4,1,4,"NAGE",MAS,2,S,"NAGES",6,70,0,0,NA,1,IP
1,111,11,4,1,5,DUR,MAS,2,S,DURS,3,70,0,2,NA,1,IP
1,111,11,4,1,6,DINA,MAI,2,I,DINAI,3.5,80,0,2.5,NA,1,IP
1,111,11,4,1,7,DUR,MAQ,2,A,DURA,3,70,0,2,NA,1,IP
1,111,11,4,1,8,FIN,MQI,2,I,FINI,2.8,90,0,4.2,NA,1,IP
1,111,11,4,1,9,DURA,MQT,2,T,DURAT,4,80,0,2,NA,1,IP
1,111,11,4,1,10,FINI,MQS,2,S,FINIS,3.8,80,0.9,4.2,NA,1,IP
1,111,11,4,2,1,CEDE,MESOY,2,S,CEDES,8,80,0,0,NA,1,IP
1,111,11,4,2,2,TENU,MEOYI,2,E,TENUE,5,80,0,0,NA,1,IP
1,111,11,4,2,3,NA,MOYII,2,NA,NA,0,0,0,0,1,1,IP
1,111,11,4,2,4,NA,MOYIIY,2,NA,NA,0,NA,0,0,1,1,IP
1,111,11,4,2,5,ORAL,MOYIIYV,2,M,MORAL,4,80,0,2,NA,1,IP
1,111,11,4,2,6,IDEE,OYIIYVE,2,V,VIDEE,6.5,90,1.6,2.5,NA,1,IP
1,111,11,4,2,7,ORAL,OYIIYEE,2,E,ORALE,3,80,0,2,NA,1,IP
1,111,11,4,2,8,NA,OYIIYEI,2,NA,NA,0,0,0,0,1,1,IP
1,111,11,4,2,9,NA,OYIIYEIW,2,NA,NA,0,NA,0,0,1,1,IP
1,111,11,4,2,10,VINE,OYIIYEIWR,2,R,VINER,2.4,80,0,5.6,NA,1,IP
1,112,12,4,1,1,NA,MIEEV,3,NA,NA,0,0,0,0,1,1,IP
1,112,12,4,1,2,SORS,MIEEVE,3,I,SOIRS,5,40,0,0,NA,1,IP
1,112,12,4,1,3,NA,MEEVEA,3,NA,NA,0,NA,2,0,1,1,IP
1,112,12,4,1,4,NA,MEEVEAR,3,NA,NA,0,NA,0,0,1,1,IP
1,112,12,4,1,5,DINA,MEEVEARE,3,R,DINAR,6,40,0,0,NA,1,IP
1,112,12,4,1,6,NA,MEEVEAEE,3,NA,NA,0,0,2.5,0,1,1,IP
1,112,12,4,1,7,NA,MEEVEAEEL,3,NA,NA,0,0,0,0,1,1,IP
1,112,12,4,1,8,NA,MEEVEAEELE,3,NA,NA,0,NA,0,0,NA,1,IP
1,112,12,4,1,9,NA,MEEVEAEELEL,3,NA,NA,0,NA,0,0,1,1,IP
1,112,12,4,1,10,NA,MEEVEAEELELI,3,NA,NA,0,0,0,0,1,1,IP
1,112,12,4,2,1,POIL,GRELO,3,E,POILE,7,50,0,0,NA,1,IP
1,112,12,4,2,2,POILE,GRLOE,3,R,POILER,8,50,0,0,NA,1,IP
1,112,12,4,2,3,NA,GLOEN,3,NA,NA,0,0,3.5,0,1,1,IP
1,112,12,4,2,4,NA,GLOENM,3,NA,NA,0,NA,3,0,1,1,IP
1,112,12,4,2,5,NA,GLOENMU,3,NA,NA,0,0,0,0,1,1,IP
1,112,12,4,2,6,NA,GLOENMUA,3,LUNE,LUNE,4,70,0,0,NA,1,IP
1,112,12,4,2,7,NA,GOMAI,3,AMIGO,AMIGO,7,50,0,0,NA,1,IP
1,112,12,4,2,8,NA,T,3,NA,NA,0,NA,0,0,NA,1,IP
1,112,12,4,2,9,NA,TI,3,NA,NA,0,NA,3,0,NA,1,IP
1,112,12,4,2,10,NA,TIN,3,TIN,TIN,3,40,0,0,NA,1,IP
1,113,13,5,1,1,NUES,EJAAP,1,E,NUEES,5,0,0,0,NA,1,IP
1,113,13,5,1,2,MES,JAAPA,1,A,AMES,2.6,50,3,2.4,NA,1,IP
1,113,13,5,1,3,NA,JAPAB,1,NA,NA,0,NA,0,0,1,1,IP
1,113,13,5,1,4,NA,JAPABN,1,BAN,BAN,5,50,0,0,NA,1,IP
1,113,13,5,1,5,AMES,JPAU,1,P,PAMES,5.6,60,2.5,2.4,NA,1,IP
1,113,13,5,1,6,PAMES,JAUL,1,U,PAUMES,6.6,60,0.5,2.4,NA,1,IP
1,113,13,5,1,7,BAN,JALC,1,C,BANC,8,60,2.3,0,NA,1,IP
1,113,13,5,1,8,NA,JALI,1,LAI,LAI,3,80,0,0,NA,1,IP
1,113,13,5,1,9,NA,JU,1,NA,NA,0,0,0,0,1,1,IP
1,113,13,5,1,10,LAI,JUC,1,C,LAIC,6,80,0,0,NA,1,IP
1,113,13,5,2,1,NA,RNMUA,1,RAM,RAM,4,NA,0,0,NA,1,noIP
1,113,13,5,2,2,LIEU,NUX,1,X,LIEUX,14,NA,0,0,NA,1,noIP
1,113,13,5,2,3,POIL,NUA,1,U,POILU,7,NA,0,0,NA,1,noIP
1,113,13,5,2,4,POIL,"NAO",1,A,POILA,7,NA,0,0,NA,1,noIP
1,113,13,5,2,5,NA,NOF,1,FON,FON,6,NA,0,0,NA,1,noIP
1,113,13,5,2,6,CEDES,E,1,E,CEDEES,9,NA,0,0,NA,1,noIP
1,113,13,5,2,7,NA,N,1,NA,NA,0,0,0,0,1,1,noIP
1,113,13,5,2,8,FOND,NE,1,E,FONDE,9,NA,0,0,NA,1,noIP
1,113,13,5,2,9,POILA,NI,1,I,POILAI,8,NA,0,0,NA,1,noIP
1,113,13,5,2,10,NA,NH,1,NA,NA,0,NA,0,0,1,1,noIP
1,114,14,5,1,1,NA,EHIUE,2,HUE,HUE,6,20,0,0,NA,0,IP
1,114,14,5,1,2,POSA,IEI,2,I,POSAI,4,50,1.2,3,NA,0,IP
1,114,14,5,1,3,HUME,EIS,2,S,HUMES,7.8,100,1.2,1.2,NA,0,IP
1,114,14,5,1,4,DINA,EII,2,I,DINAI,3.5,50,2.2,2.5,NA,0,IP
1,114,14,5,1,5,BAN,EIL,2,I,BANI,3.5,90,2.5,2.5,NA,0,IP
1,114,14,5,1,6,AMES,ELL,2,L,LAMES,3.1,100,0,2.9,NA,0,IP
1,114,14,5,1,7,PAMES,ELU,2,L,PALMES,4.3,10,1.2,4.7,NA,0,IP
1,114,14,5,1,8,NA,EUL,2,ELU,ELU,3,40,0,0,NA,0,IP
1,114,14,5,1,9,HUME,R,2,R,HUMER,7.8,40,0,1.2,NA,0,IP
1,114,14,5,1,10,NA,M,2,NA,NA,0,0,1.6,0,1,0,IP
1,114,14,5,2,1,POIL,IESRB,2,S,POILS,7,NA,0,0,NA,0,noIP
1,114,14,5,2,2,NA,IERBI,2,BRIE,BRIE,6,NA,0,0,NA,0,noIP
1,114,14,5,2,3,RAM,IF,2,I,RAMI,5,NA,0,0,NA,0,noIP
1,114,14,5,2,4,BRIE,FG,2,F,BRIEF,10,NA,0,0,NA,0,noIP
1,114,14,5,2,5,FON,GT,2,T,FONT,7,NA,0,0,NA,0,noIP
1,114,14,5,2,6,FON,GD,2,D,FOND,8,NA,0,0,NA,0,noIP
1,114,14,5,2,7,CEDE,GR,2,R,CEDRE,8,NA,0,0,NA,0,noIP
1,114,14,5,2,8,NA,GB,2,NA,NA,0,0,0,0,1,0,noIP
1,114,14,5,2,9,FONDE,GBR,2,R,FONDRE,10,NA,0,0,NA,0,noIP
1,114,14,5,2,10,BRIEF,GBE,2,E,BRIEFE,11,NA,0,0,NA,0,noIP
1,115,15,5,1,1,NA,EMSHH,3,MES,MES,4,60,0,0,NA,1,IP
1,115,15,5,1,2,HUE,HHM,3,M,HUME,6.8,60,2.4,1.2,NA,1,IP
1,115,15,5,1,3,HUE,HHE,3,E,HUEE,5.8,60,1.2,1.2,NA,1,IP
1,115,15,5,1,4,HUMES,HHE,3,E,HUMEES,7.8,60,2.5,2.2,NA,1,IP
1,115,15,5,1,5,"NAGE",HHE,3,E,"NAGEE",3.5,60,2.4,2.5,NA,1,IP
1,115,15,5,1,6,NA,HHV,3,NA,NA,0,0,4.8,0,1,1,IP
1,115,15,5,1,7,HUEE,HHVM,3,M,HUMEE,7.8,60,2.4,1.2,NA,1,IP
1,115,15,5,1,8,NA,HHVN,3,NA,NA,0,NA,0,0,NA,1,IP
1,115,15,5,1,9,NA,HHVNA,3,NA,NA,0,NA,1.2,0,NA,1,IP
1,115,15,5,1,10,HUMER,HHVNAE,3,A,HUMERA,8.4,80,0,1.6,NA,1,IP
1,115,15,5,2,1,CEDE,ETLOS,3,E,CEDEE,8,NA,0,0,NA,1,noIP
1,115,15,5,2,2,POILS,TLOSU,3,U,POILUS,8,NA,0,0,NA,1,noIP
1,115,15,5,2,3,BRIE,TLOSM,3,M,BRIME,8,NA,0,0,NA,1,noIP
1,115,15,5,2,4,CEDE,TLOSH,3,S,CEDES,8,NA,0,0,NA,1,noIP
1,115,15,5,2,5,NA,TLOHT,3,LOT,LOT,3,NA,0,0,NA,1,noIP
1,115,15,5,2,6,NA,HTH,3,NA,NA,0,0,0,0,1,1,noIP
1,115,15,5,2,7,LOT,HTHO,3,O,LOTO,4,NA,0,0,NA,1,noIP
1,115,15,5,2,8,NA,HTHN,3,NA,NA,0,NA,0,0,NA,1,noIP
1,115,15,5,2,9,POILA,HTHNO,3,T,POILAT,8,NA,0,0,NA,1,noIP
1,115,15,5,2,10,POILAT,HHNON,3,N,POILANT,9,NA,0,0,NA,1,noIP
2,201,1,1,1,1,POIL,RUEYV,1,U,POILU,4,50,0,3,NA,NA,IP
2,201,1,1,1,2,NA,REYVB,1,VER,VER,6,40,0,0,NA,NA,IP
2,201,1,1,1,3,POIL,YBE,1,E,POILE,4,70,0,3,NA,NA,IP
2,201,1,1,1,4,NA,YBO,1,NA,NA,0,NA,0.7,0,1,NA,IP
2,201,1,1,1,5,NA,YBOE,1,NA,NA,0,NA,0,0,1,NA,IP
2,201,1,1,1,6,NA,YBOEY,1,NA,NA,0,NA,0,0,NA,NA,IP
2,201,1,1,1,7,NA,YBOEYI,1,OBEI,OBEI,6,40,0.7,0,NA,NA,IP
2,201,1,1,1,8,NA,YYL,1,NA,NA,0,NA,0,0,NA,NA,IP
2,201,1,1,1,9,NA,YYLG,1,NA,NA,0,NA,0,0,1,NA,IP
2,201,1,1,1,10,LIEU,YYLGX,1,X,LIEUX,12,60,2.5,2,NA,NA,IP
2,201,1,1,2,1,NA,PBUER,1,PUB,PUB,7,NA,0,0,NA,NA,noIP
2,201,1,1,2,2,"NAGE",ERY,1,R,"NAGER",6,NA,0,0,NA,NA,noIP
2,201,1,1,2,3,"NAGE",EYI,1,E,"NAGEE",6,NA,0,0,NA,NA,noIP
2,201,1,1,2,4,SORS,YIL,1,I,SOIRS,5,NA,0,0,NA,NA,noIP
2,201,1,1,2,5,NA,YLO,1,NA,NA,0,0,0,0,1,NA,noIP
2,201,1,1,2,6,ORAL,YLOE,1,E,ORALE,5,NA,0,0,NA,NA,noIP
2,201,1,1,2,7,CEDEE,YLOS,1,S,CEDEES,9,NA,0,0,NA,NA,noIP
2,201,1,1,2,8,NA,YLOG,1,LOG,LOG,4,NA,0,0,NA,NA,noIP
2,201,1,1,2,9,NA,YV,1,NA,NA,0,0,0,0,1,NA,noIP
2,201,1,1,2,10,NA,YVG,1,NA,NA,0,0,0,0,1,NA,noIP
2,202,2,1,1,1,NA,IDSOV,2,VOS,VOS,6,50,3,0,NA,NA,IP
2,202,2,1,1,2,IDEE,IDA,2,A,AIDEE,3.5,80,0,2.5,NA,NA,IP
2,202,2,1,1,3,VOS,IDZ,2,I,VOIS,7,70,3,0,NA,NA,IP
2,202,2,1,1,4,POILE,DZD,2,Z,POILEZ,16.3,70,0,0.7,NA,NA,IP
2,202,2,1,1,5,POIL,DDA,2,A,POILA,7,80,3.8,0,NA,NA,IP
2,202,2,1,1,6,BAIN,DDO,2,D,BADIN,5,100,0,3,NA,NA,IP
2,202,2,1,1,7,POILE,DOE,2,E,POILEE,7.3,100,0,0.7,NA,NA,IP
2,202,2,1,1,8,VOIS,DOE,2,E,VOIES,8,80,0,0,NA,NA,IP
2,202,2,1,1,9,NA,DOH,2,NA,NA,0,0,0,0,1,NA,IP
2,202,2,1,1,10,DINA,DOHI,2,I,DINAI,3.5,70,2,2.5,NA,NA,IP
2,202,2,1,2,1,NA,APUBL,2,BAL,BAL,5,NA,0,0,NA,NA,noIP
2,202,2,1,2,2,"NAGER",PUD,2,U,"NAGEUR",7,NA,0,0,NA,NA,noIP
2,202,2,1,2,3,CEDE,PDZ,2,Z,CEDEZ,17,NA,0,0,NA,NA,noIP
2,202,2,1,2,4,NA,PDP,2,NA,NA,0,0,0,0,1,NA,noIP
2,202,2,1,2,5,"NAGER",PDPA,2,A,"NAGERA",7,NA,0,0,NA,NA,noIP
2,202,2,1,2,6,NA,PDPH,2,NA,NA,0,NA,0,0,1,NA,noIP
2,202,2,1,2,7,POSAI,PDPHT,2,T,POSAIT,8,NA,0,0,NA,NA,noIP
2,202,2,1,2,8,NA,PDPHQ,2,NA,NA,0,NA,0,0,1,NA,noIP
2,202,2,1,2,9,NA,PDPHQE,2,PEP,PEP,7,NA,0,0,NA,NA,noIP
2,202,2,1,2,10,LOGE,DHQM,2,D,LODGE,7,NA,0,0,NA,NA,noIP
2,203,3,1,1,1,NA,ANBIN,3,BAIN,BAIN,6,50,0,0,NA,NA,IP
2,203,3,1,1,2,LIEU,NE,3,E,LIEUE,5,50,2.5,0,NA,NA,IP
2,203,3,1,1,3,NA,NB,3,NA,NA,0,NA,0,0,NA,NA,IP
2,203,3,1,1,4,NA,NBI,3,NA,NA,0,NA,0,0,1,NA,IP
2,203,3,1,1,5,POILA,NBIU,3,I,POILAI,4.2,70,0,3.8,NA,NA,IP
2,203,3,1,1,6,NA,NBUN,3,NA,NA,0,NA,3,0,NA,NA,IP
2,203,3,1,1,7,NA,NBUNL,3,NA,NA,0,0,0,0,1,NA,IP
2,203,3,1,1,8,NA,NBUNLE,3,LUNE,LUNE,4,80,0,0,NA,NA,IP
2,203,3,1,1,9,NA,BNN,3,NA,NA,0,NA,0,0,NA,NA,IP
2,203,3,1,1,10,BADIN,BNNA,3,A,BADINA,7,70,2,2,NA,NA,IP
2,203,3,1,2,1,CEDE,EODFK,3,E,CEDEE,8,NA,0,0,NA,NA,noIP
2,203,3,1,2,2,POSA,ODFKI,3,I,POSAI,7,NA,0,0,NA,NA,noIP
2,203,3,1,2,3,NA,ODFKR,3,NA,NA,0,NA,0,0,NA,NA,noIP
2,203,3,1,2,4,NA,ODFKRD,3,FOR,FOR,6,NA,0,0,NA,NA,noIP
2,203,3,1,2,5,NA,DKDU,3,NA,NA,0,NA,0,0,NA,NA,noIP
2,203,3,1,2,6,SORS,DKDUE,3,E,SORES,5,NA,0,0,NA,NA,noIP
2,203,3,1,2,7,"NAGERA",DKDUI,3,I,"NAGERAI",8,NA,0,0,NA,NA,noIP
2,203,3,1,2,8,FOR,DKDUD,3,U,FOUR,7,NA,0,0,NA,NA,noIP
2,203,3,1,2,9,LOG,DKDDE,3,E,LOGE,5,NA,0,0,NA,NA,noIP
2,203,3,1,2,10,"NAGERAI",DKDDS,3,S,"NAGERAIS",9,NA,0,0,NA,NA,noIP
2,204,4,2,1,1,NA,ODIQB,1,NA,NA,0,NA,0,0,1,NA,IP
2,204,4,2,1,2,POIL,ODIQBA,1,A,POILA,4,40,0,3,NA,NA,IP
2,204,4,2,1,3,NA,ODIQBI,1,NA,NA,0,NA,2,0,1,NA,IP
2,204,4,2,1,4,TENU,ODIQBIR,1,D,TENDU,6,70,3.4,0,NA,NA,IP
2,204,4,2,1,5,IDEE,OIQBIRS,1,R,RIDEE,3.5,90,0,2.5,NA,NA,IP
2,204,4,2,1,6,RIDEE,OIQBISA,1,B,BRIDEE,6.5,90,0,2.5,NA,NA,IP
2,204,4,2,1,7,BRIDEE,OIQISAT,1,S,BRIDEES,7.5,80,0,2.5,NA,NA,IP
2,204,4,2,1,8,TENDU,OIQIATS,1,S,TENDUS,7,80,0,0,NA,NA,IP
2,204,4,2,1,9,NA,OIQIATH,1,NA,NA,0,0,0,0,1,NA,IP
2,204,4,2,1,10,NA,OIQIATHN,1,NA,NA,0,NA,0,0,1,NA,IP
2,204,4,2,2,1,"NAGE",ERRAN,1,R,"NAGER",6,NA,0,0,NA,NA,noIP
2,204,4,2,2,2,NA,ERANF,1,FAN,FAN,6,NA,0,0,NA,NA,noIP
2,204,4,2,2,3,FAN,ERV,1,E,FANE,7,NA,0,0,NA,NA,noIP
2,204,4,2,2,4,FANE,RVA,1,R,FANER,8,NA,0,0,NA,NA,noIP
2,204,4,2,2,5,FANER,VAF,1,A,FANERA,9,NA,0,0,NA,NA,noIP
2,204,4,2,2,6,ORAL,VFM,1,M,MORAL,6,NA,0,0,NA,NA,noIP
2,204,4,2,2,7,NA,VFP,1,NA,NA,0,NA,0,0,1,NA,noIP
2,204,4,2,2,8,NA,VFPQ,1,NA,NA,0,NA,0,0,NA,NA,noIP
2,204,4,2,2,9,CEDE,VFPQR,1,R,CEDER,8,NA,0,0,NA,NA,noIP
2,204,4,2,2,10,NA,VFPQD,1,NA,NA,0,NA,0,0,NA,NA,noIP
2,205,5,2,1,1,NUES,ENNON,2,O,NOUES,5,70,0,0,NA,NA,IP
2,205,5,2,1,2,LIEU,ENNNX,2,X,LIEUX,12,80,3,2,NA,NA,IP
2,205,5,2,1,3,NA,ENNNS,2,NA,NA,0,NA,0,0,1,NA,IP
2,205,5,2,1,4,POIL,ENNNSU,2,S,POILS,7,80,0,0,NA,NA,IP
2,205,5,2,1,5,NA,ENNNUQ,2,QUE,QUE,10,100,0,0,NA,NA,IP
2,205,5,2,1,6,NA,NNNN,2,NA,NA,0,0,0,0,1,NA,IP
2,205,5,2,1,7,POILS,NNNNU,2,U,POILUS,8,90,0,0,NA,NA,IP
2,205,5,2,1,8,MAL,NNNNI,2,I,MALI,1.8,50,3,3.2,NA,NA,IP
2,205,5,2,1,9,POILS,NNNNE,2,E,POILES,8,100,0,0,NA,NA,IP
2,205,5,2,1,10,QUE,NNNNL,2,L,QUEL,11,100,0,0,NA,NA,IP
2,205,5,2,2,1,NA,ASNVV,2,VANS,VANS,7,NA,0,0,NA,NA,noIP
2,205,5,2,2,2,NA,VV,2,NA,NA,0,NA,0,0,NA,NA,noIP
2,205,5,2,2,3,NA,VVU,2,NA,NA,0,NA,0,0,NA,NA,noIP
2,205,5,2,2,4,NA,VVUN,2,NA,NA,0,0,0,0,1,NA,noIP
2,205,5,2,2,5,NA,VVUNS,2,VUS,VUS,6,NA,0,0,NA,NA,noIP
2,205,5,2,2,6,NA,VNE,2,NA,NA,0,NA,0,0,1,NA,noIP
2,205,5,2,2,7,ORAL,VNEL,2,E,ORALE,5,NA,0,0,NA,NA,noIP
2,205,5,2,2,8,NA,VNLA,2,VAN,VAN,6,NA,0,0,NA,NA,noIP
2,205,5,2,2,9,FANERA,LT,2,L,FLANERA,10,NA,0,0,NA,NA,noIP
2,205,5,2,2,10,POSA,TR,2,T,POSAT,7,NA,0,0,NA,NA,noIP
2,206,6,2,1,1,IDEE,ZERES,3,S,IDEES,6,50,0,0,NA,NA,IP
2,206,6,2,1,2,LIEU,ZEREE,3,E,LIEUE,5,50,2,0,NA,NA,IP
2,206,6,2,1,3,TENU,ZREEL,3,E,TENUE,3,50,0,2,NA,NA,IP
2,206,6,2,1,4,TENDU,ZRELM,3,E,TENDUE,3.6,50,0,3.4,NA,NA,IP
2,206,6,2,1,5,NA,ZRLMA,3,NA,NA,0,NA,2.5,0,NA,NA,IP
2,206,6,2,1,6,NA,ZRLMAU,3,MAL,MAL,4,80,2.5,0,NA,NA,IP
2,206,6,2,1,7,IDEES,ZRUV,3,R,RIDEES,7,50,2.5,0,NA,NA,IP
2,206,6,2,1,8,POIL,ZUVO,3,U,POILU,4,50,3.2,3,NA,NA,IP
2,206,6,2,1,9,NA,ZVOA,3,NA,NA,0,NA,0,0,1,NA,IP
2,206,6,2,1,10,IDEES,ZVOAI,3,V,VIDEES,10,80,0,0,NA,NA,IP
2,206,6,2,2,1,"NAGE",SEESW,3,S,"NAGES",6,NA,0,0,NA,NA,noIP
2,206,6,2,2,2,CEDE,EESWE,3,E,CEDEE,8,NA,0,0,NA,NA,noIP
2,206,6,2,2,3,"NAGER",ESWEA,3,A,"NAGERA",7,NA,0,0,NA,NA,noIP
2,206,6,2,2,4,"NAGERA",ESWEY,3,S,"NAGERAS",8,NA,0,0,NA,NA,noIP
2,206,6,2,2,5,NA,EWEYN,3,YEN,YEN,12,NA,0,0,NA,NA,noIP
2,206,6,2,2,6,MORAL,WEY,3,E,MORALE,7,NA,0,0,NA,NA,noIP
2,206,6,2,2,7,NA,WYL,3,NA,NA,0,NA,0,0,NA,NA,noIP
2,206,6,2,2,8,FANER,WYLW,3,L,FLANER,9,NA,0,0,NA,NA,noIP
2,206,6,2,2,9,VUS,WYWE,3,E,VUES,7,NA,0,0,NA,NA,noIP
2,206,6,2,2,10,NA,WYWO,3,NA,NA,0,NA,0,0,NA,NA,noIP
2,207,7,3,1,1,NA,ODRAN,1,DON,DON,4,50,0,0,NA,NA,IP
2,207,7,3,1,2,TAPE,RAT,1,R,TAPER,2.8,70,2,4.2,NA,NA,IP
2,207,7,3,1,3,TAPER,ATN,1,A,TAPERA,3.8,70,2.5,4.2,NA,NA,IP
2,207,7,3,1,4,DINA,TNS,1,T,DINAT,6,50,1.4,0,NA,NA,IP
2,207,7,3,1,5,DINA,NSS,1,S,DINAS,6,50,0,0,NA,NA,IP
2,207,7,3,1,6,TENU,NSD,1,D,TENDU,6,50,0,0,NA,NA,IP
2,207,7,3,1,7,TENDU,NSD,1,S,TENDUS,7,30,0,0,NA,NA,IP
2,207,7,3,1,8,DINAS,NDR,1,R,DINARS,7,30,0,0,NA,NA,IP
2,207,7,3,1,9,TENDUS,NDE,1,E,TENDUES,8,50,0,0,NA,NA,IP
2,207,7,3,1,10,DINAT,NDN,1,N,DINANT,7,60,0,0,NA,NA,IP
2,207,7,3,2,1,POSA,IIEBE,1,I,POSAI,7,NA,0,0,NA,NA,noIP
2,207,7,3,2,2,ORAL,IEBEU,1,E,ORALE,5,NA,0,0,NA,NA,noIP
2,207,7,3,2,3,NA,IBEUC,1,CUBE,CUBE,8,NA,0,0,NA,NA,noIP
2,207,7,3,2,4,NA,IG,1,NA,NA,0,0,0,0,1,NA,noIP
2,207,7,3,2,5,CEDE,IGR,1,R,CEDER,8,NA,0,0,NA,NA,noIP
2,207,7,3,2,6,CUBE,IGE,1,E,CUBEE,9,NA,0,0,NA,NA,noIP
2,207,7,3,2,7,POUPE,IGE,1,E,POUPEE,10,NA,0,0,NA,NA,noIP
2,207,7,3,2,8,NA,IGO,1,NA,NA,0,NA,0,0,1,NA,noIP
2,207,7,3,2,9,NA,IGOH,1,GOI,GOI,4,NA,0,0,NA,NA,noIP
2,207,7,3,2,10,POUPE,HL,1,L,POULPE,10,NA,0,0,NA,NA,noIP
2,208,8,3,1,1,POIL,IALNI,2,A,POILA,7,60,0,0,NA,NA,IP
2,208,8,3,1,2,IDEE,ILNIR,2,R,RIDEE,3.5,40,0,2.5,NA,NA,IP
2,208,8,3,1,3,NA,ILNIV,2,NA,NA,0,NA,0,0,1,NA,IP
2,208,8,3,1,4,NA,ILNIVI,2,VIN,VIN,6,40,0,0,NA,NA,IP
2,208,8,3,1,5,NA,LIIN,2,NA,NA,0,0,2.4,0,1,NA,IP
2,208,8,3,1,6,NA,LIINA,2,NA,NA,0,0,0,0,1,NA,IP
2,208,8,3,1,7,NA,LIINAB,2,BILAN,BILAN,7,40,0,0,NA,NA,IP
2,208,8,3,1,8,VAIN,IE,2,E,VAINE,7.3,70,0,0.7,NA,NA,IP
2,208,8,3,1,9,NA,IR,2,NA,NA,0,NA,3.1,0,1,NA,IP
2,208,8,3,1,10,NA,IRD,2,NA,NA,0,0,0,0,1,NA,IP
2,208,8,3,2,1,CEDE,JOMEU,2,E,CEDEE,8,NA,0,0,NA,NA,noIP
2,208,8,3,2,2,NA,JOMUU,2,NA,NA,0,0,0,0,1,NA,noIP
2,208,8,3,2,3,ORALE,JOMUUH,2,M,MORALE,7,NA,0,0,NA,NA,noIP
2,208,8,3,2,4,NA,JOUUHN,2,HUN,HUN,6,NA,0,0,NA,NA,noIP
2,208,8,3,2,5,NA,JOUU,2,NA,NA,0,0,0,0,1,NA,noIP
2,208,8,3,2,6,POPE,JOUUN,2,U,POUPE,9,NA,0,0,NA,NA,noIP
2,208,8,3,2,7,NA,JOUNY,2,NA,NA,0,0,0,0,1,NA,noIP
2,208,8,3,2,8,NA,JOUNYE,2,YEN,YEN,12,NA,0,0,NA,NA,noIP
2,208,8,3,2,9,NA,JOUG,2,JOUG,JOUG,12,NA,0,0,NA,NA,noIP
2,208,8,3,2,10,NA,N,2,NA,NA,0,0,0,0,1,NA,noIP
2,209,9,3,1,1,NA,ATPER,3,TAPE,TAPE,6,70,0,0,NA,NA,IP
2,209,9,3,1,2,DON,RT,3,T,DONT,3,30,6.7,2,NA,NA,IP
2,209,9,3,1,3,DINA,RA,3,R,DINAR,3.5,30,4.2,2.5,NA,NA,IP
2,209,9,3,1,4,TAPERA,AS,3,S,TAPERAS,7.6,10,0,1.4,NA,NA,IP
2,209,9,3,1,5,VIN,AL,3,A,VAIN,4.6,70,0,2.4,NA,NA,IP
2,209,9,3,1,6,NA,LM,3,NA,NA,0,NA,0,0,NA,NA,IP
2,209,9,3,1,7,NA,LMR,3,NA,NA,0,NA,0,0,NA,NA,IP
2,209,9,3,1,8,NA,LMRD,3,NA,NA,0,0,0.7,0,1,NA,IP
2,209,9,3,1,9,VAINE,LMRDS,3,S,VAINES,5.9,70,0,3.1,NA,NA,IP
2,209,9,3,1,10,NA,LMRDE,3,MERL,MERL,5,80,0,0,NA,NA,IP
2,209,9,3,2,1,NA,EIOOP,3,NA,NA,0,0,0,0,1,NA,noIP
2,209,9,3,2,2,SORS,EIOOPE,3,I,SOIRS,5,NA,0,0,NA,NA,noIP
2,209,9,3,2,3,NA,EOOPEO,3,NA,NA,0,0,0,0,1,NA,noIP
2,209,9,3,2,4,HUN,EOOPEOO,3,E,HUNE,7,NA,0,0,NA,NA,noIP
2,209,9,3,2,5,NA,OOPEOOP,3,POPE,POPE,8,NA,0,0,NA,NA,noIP
2,209,9,3,2,6,POSAI,OOOT,3,T,POSAIT,8,NA,0,0,NA,NA,noIP
2,209,9,3,2,7,NA,OOOO,3,NA,NA,0,0,0,0,1,NA,noIP
2,209,9,3,2,8,NA,OOOOB,3,NA,NA,0,NA,0,0,1,NA,noIP
2,209,9,3,2,9,NA,OOOOBN,3,BON,BON,5,NA,0,0,NA,NA,noIP
2,209,9,3,2,10,NA,OOOU,3,NA,NA,0,NA,0,0,1,NA,noIP
2,210,10,4,1,1,DINA,EEIPR,1,R,DINAR,6,100,2.5,0,NA,NA,IP
2,210,10,4,1,2,NA,EEIPM,1,EPI,EPI,5,60,2.5,0,NA,NA,IP
2,210,10,4,1,3,NA,EMU,1,EMU,EMU,4,60,5,0,NA,NA,IP
2,210,10,4,1,4,EPI,E,1,E,EPIE,6,60,0,0,NA,NA,IP
2,210,10,4,1,5,EPIE,N,1,N,EPINE,7,60,3,0,NA,NA,IP
2,210,10,4,1,6,EPINE,E,1,E,EPINEE,8,60,3,0,NA,NA,IP
2,210,10,4,1,7,EPINEE,S,1,S,EPINEES,9,50,0,0,NA,NA,IP
2,210,10,4,1,8,EPIAI,L,1,L,EPILAI,7.2,40,2.5,0.8,NA,NA,IP
2,210,10,4,1,9,EPILAI,T,1,T,EPILAIT,8.2,60,3,0.8,NA,NA,IP
2,210,10,4,1,10,NA,A,1,NA,NA,0,0,2.5,0,1,NA,IP
2,210,10,4,2,1,NA,NEGAV,1,GAVE,GAVE,8,NA,0,0,NA,NA,noIP
2,210,10,4,2,2,NA,ND,1,NA,NA,0,0,0,0,1,NA,noIP
2,210,10,4,2,3,GAVE,NDE,1,E,GAVEE,9,NA,0,0,NA,NA,noIP
2,210,10,4,2,4,NA,NDM,1,NA,NA,0,0,0,0,1,NA,noIP
2,210,10,4,2,5,NA,NDMO,1,MON,MON,4,NA,0,0,NA,NA,noIP
2,210,10,4,2,6,NA,DN,1,NA,NA,0,0,0,0,1,NA,noIP
2,210,10,4,2,7,CEDE,DNE,1,E,CEDEE,8,NA,0,0,1,NA,noIP
2,210,10,4,2,8,HOU,DNE,1,E,HOUE,7,NA,0,0,NA,NA,noIP
2,210,10,4,2,9,NA,DNU,1,NA,NA,0,0,0,0,1,NA,noIP
2,210,10,4,2,10,GRAVIES,DNUR,1,R,GRAVIERS,12,NA,0,0,NA,NA,noIP
2,211,11,4,1,1,POIL,VHAOU,2,U,POILU,7,40,0,0,NA,NA,IP
2,211,11,4,1,2,IDEE,VHAOU,2,V,VIDEE,6.5,40,0,2.5,NA,NA,IP
2,211,11,4,1,3,EPI,HAOUH,2,A,EPIA,3,30,0,3,NA,NA,IP
2,211,11,4,1,4,POILU,HOUHE,2,E,POILUE,8,100,0,0,NA,NA,IP
2,211,11,4,1,5,NA,HOUHM,2,HOU,HOU,6,60,0.3,0,NA,NA,IP
2,211,11,4,1,6,EPIA,HMI,2,I,EPIAI,4,50,0,3,NA,NA,IP
2,211,11,4,1,7,NA,HMH,2,NA,NA,0,0,2,0,1,NA,IP
2,211,11,4,1,8,DINA,HMHO,2,O,DOINA,3.5,100,0.8,2.5,NA,NA,IP
2,211,11,4,1,9,POIL,HMHA,2,A,POILA,7,70,0.8,0,NA,NA,IP
2,211,11,4,1,10,NA,HMHE,2,HEM,HEM,7,70,1,0,NA,NA,IP
2,211,11,4,2,1,CEDE,IHMRU,2,R,CEDER,8,NA,0,0,NA,NA,noIP
2,211,11,4,2,2,POSA,IHMUI,2,I,POSAI,7,NA,0,0,NA,NA,noIP
2,211,11,4,2,3,SORS,HMUIO,2,I,SOIRS,5,NA,0,0,NA,NA,noIP
2,211,11,4,2,4,CEDER,HMUOA,2,A,CEDERA,9,NA,0,0,NA,NA,noIP
2,211,11,4,2,5,NA,HMUOD,2,NA,NA,0,NA,0,0,1,NA,noIP
2,211,11,4,2,6,GAVE,HMUODR,2,R,GRAVE,9,NA,0,0,NA,NA,noIP
2,211,11,4,2,7,NA,HMUODE,2,HOU,HOU,6,NA,0,0,NA,NA,noIP
2,211,11,4,2,8,GRAVE,MDEI,2,I,GRAVIE,10,NA,0,0,NA,NA,noIP
2,211,11,4,2,9,GRAVIES,MDEE,2,M,GRAVIMES,13,NA,0,0,NA,NA,noIP
2,211,11,4,2,10,MONO,DEEI,2,I,MONOI,6,NA,0,0,NA,NA,noIP
2,212,12,4,1,1,DINA,OINUA,3,I,DINAI,3.5,30,0,2.5,NA,NA,IP
2,212,12,4,1,2,DINAI,ONUAT,3,T,DINAIT,4.5,40,2.5,2.5,NA,NA,IP
2,212,12,4,1,3,TENU,ONUAE,3,E,TENUE,3,60,0,2,NA,NA,IP
2,212,12,4,1,4,NA,ONUAI,3,NOUAI,NOUAI,5,30,0,0,NA,NA,IP
2,212,12,4,1,5,EPIA,C,3,C,EPICA,5.7,30,0,3.3,NA,NA,IP
2,212,12,4,1,6,LIEU,E,3,E,LIEUE,5,40,0,0,NA,NA,IP
2,212,12,4,1,7,NUES,O,3,O,NOUES,3,50,0,2,NA,NA,IP
2,212,12,4,1,8,NOUAI,T,3,T,NOUAIT,6,60,0,0,NA,NA,IP
2,212,12,4,1,9,EPI,K,3,K,KEPI,12,20,0,3,NA,NA,IP
2,212,12,4,1,10,DOINA,M,3,M,DOMINA,4.5,50,0,3.5,NA,NA,IP
2,212,12,4,2,1,ORAL,MGNRE,3,M,MORAL,6,NA,0,0,NA,NA,noIP
2,212,12,4,2,2,MORAL,GNREO,3,E,MORALE,7,NA,0,0,NA,NA,noIP
2,212,12,4,2,3,GAVEE,GNROR,3,R,GRAVEE,10,NA,0,0,NA,NA,noIP
2,212,12,4,2,4,MORALE,GNORA,3,A,AMORALE,8,NA,0,0,NA,NA,noIP
2,212,12,4,2,5,"NAGE",GNORH,3,R,"NAGER",6,NA,0,0,NA,NA,noIP
2,212,12,4,2,6,ORAL,GNOHE,3,E,ORALE,5,NA,0,0,NA,NA,noIP
2,212,12,4,2,7,MON,GNOHN,3,O,MONO,5,NA,0,0,NA,NA,noIP
2,212,12,4,2,8,GRAVIE,GNHNS,3,S,GRAVIES,11,NA,0,0,NA,NA,noIP
2,212,12,4,2,9,NA,GNHNU,3,NA,NA,0,0,0,0,1,NA,noIP
2,212,12,4,2,10,NA,GNHNUN,3,NA,NA,0,NA,0,0,NA,NA,noIP
2,213,13,5,1,1,NA,VLETE,1,TELE,TELE,4,60,0,0,NA,NA,IP
2,213,13,5,1,2,IDEE,VI,1,V,VIDEE,6.5,80,0,2.5,NA,NA,IP
2,213,13,5,1,3,VISE,IE,1,E,VISEE,4.5,80,0,3.5,NA,NA,IP
2,213,13,5,1,4,DINA,IU,1,I,DINAI,6,70,2.5,0,NA,NA,IP
2,213,13,5,1,5,NA,UV,1,NA,NA,0,0,0,0,1,NA,IP
2,213,13,5,1,6,TELE,UVL,1,L,TELLE,5,100,0,0,NA,NA,IP
2,213,13,5,1,7,NA,UVB,1,NA,NA,0,0,2,0,1,NA,IP
2,213,13,5,1,8,NA,UVBL,1,NA,NA,0,0,0,0,1,NA,IP
2,213,13,5,1,9,NA,UVBLL,1,NA,NA,0,NA,0,0,1,NA,IP
2,213,13,5,1,10,NA,UVBLLE,1,BULLE,BULLE,7,100,3.2,0,NA,NA,IP
2,213,13,5,2,1,"NAGE",ESKVE,1,E,"NAGEE",6,NA,0,0,NA,NA,noIP
2,213,13,5,2,2,CEDEE,SKVEA,1,S,CEDEES,9,NA,0,0,NA,NA,noIP
2,213,13,5,2,3,"NAGE",KVEAA,1,A,"NAGEA",6,NA,0,0,NA,NA,noIP
2,213,13,5,2,4,NA,KVEAC,1,CAKE,CAKE,15,NA,0,0,NA,NA,noIP
2,213,13,5,2,5,MORAL,VE,1,E,MORALE,7,NA,0,0,NA,NA,noIP
2,213,13,5,2,6,NA,VA,1,NA,NA,0,0,0,0,1,NA,noIP
2,213,13,5,2,7,NA,VAN,1,VAN,VAN,6,NA,0,0,NA,NA,noIP
2,213,13,5,2,8,NA,N,1,NA,NA,0,0,0,0,1,NA,noIP
2,213,13,5,2,9,FUN,NK,1,K,FUNK,16,NA,0,0,NA,NA,noIP
2,213,13,5,2,10,MOUD,NO,1,N,MOUND,7,NA,0,0,NA,NA,noIP
2,214,14,5,1,1,NA,GEVIS,2,VISE,VISE,7,50,0,0,NA,NA,IP
2,214,14,5,1,2,POIL,GE,2,E,POILE,7,50,3,0,NA,NA,IP
2,214,14,5,1,3,POIL,GA,2,A,POILA,7,50,6.5,0,NA,NA,IP
2,214,14,5,1,4,NA,GA,2,NA,NA,0,0,0,0,1,NA,IP
2,214,14,5,1,5,POILE,GAE,2,E,POILEE,8,70,0,0,NA,NA,IP
2,214,14,5,1,6,NUES,GAE,2,E,NUEES,5,70,3.5,0,NA,NA,IP
2,214,14,5,1,7,VISER,GAN,2,A,VISERA,8.5,50,0,0.5,NA,NA,IP
2,214,14,5,1,8,POILE,GNR,2,R,POILER,8,70,0,0,NA,NA,IP
2,214,14,5,1,9,NA,GNF,2,NA,NA,0,NA,0,0,1,NA,IP
2,214,14,5,1,10,VISERA,GNFS,2,S,VISERAS,9.5,50,0,0.5,NA,NA,IP
2,214,14,5,2,1,CEDE,LMEVN,2,E,CEDEE,8,NA,0,0,NA,NA,noIP
2,214,14,5,2,2,NA,LMVND,2,NA,NA,0,NA,0,0,1,NA,noIP
2,214,14,5,2,3,ORAL,LMVNDO,2,M,MORAL,6,NA,0,0,NA,NA,noIP
2,214,14,5,2,4,NA,LVNDOG,2,NA,NA,0,0,0,0,1,NA,noIP
2,214,14,5,2,5,SORS,LVNDOGE,2,E,SORES,5,NA,0,0,NA,NA,noIP
2,214,14,5,2,6,NA,LVNDOGE,2,DOGE,DOGE,6,NA,0,0,NA,NA,noIP
2,214,14,5,2,7,CEDERAS,LVNI,2,I,CEDERAIS,11,NA,0,0,NA,NA,noIP
2,214,14,5,2,8,NA,LVNW,2,NA,NA,0,0,0,0,1,NA,noIP
2,214,14,5,2,9,FUN,LVNWE,2,E,FUNE,7,NA,0,0,NA,NA,noIP
2,214,14,5,2,10,ORAL,LVNWE,2,E,ORALE,5,NA,0,0,NA,NA,noIP
2,215,15,5,1,1,NA,OOOFT,3,FOOT,FOOT,7,60,0,0,NA,NA,IP
2,215,15,5,1,2,POIL,OU,3,U,POILU,4,30,2.5,3,NA,NA,IP
2,215,15,5,1,3,POILU,OS,3,S,POILUS,5,50,0,3,NA,NA,IP
2,215,15,5,1,4,DINA,OK,3,O,DOINA,3.5,70,0,2.5,NA,NA,IP
2,215,15,5,1,5,NA,KD,3,NA,NA,0,NA,0,0,NA,NA,IP
2,215,15,5,1,6,VISE,KDR,3,R,VISER,4.5,50,0,3.5,NA,NA,IP
2,215,15,5,1,7,TENU,KDT,3,D,TENDU,4,80,0.5,2,NA,NA,IP
2,215,15,5,1,8,NA,KTD,3,NA,NA,0,NA,0,0,NA,NA,IP
2,215,15,5,1,9,NA,KTDI,3,KIT,KIT,12,30,0,0,NA,NA,IP
2,215,15,5,1,10,VIDEE,DE,3,E,EVIDEE,6.8,50,0.5,3.2,NA,NA,IP
2,215,15,5,2,1,CEDE,RSSNA,3,R,CEDER,8,NA,0,0,NA,NA,noIP
2,215,15,5,2,2,CEDER,SSNAM,3,A,CEDERA,9,NA,0,0,NA,NA,noIP
2,215,15,5,2,3,CEDERA,SSNMU,3,S,CEDERAS,10,NA,0,0,NA,NA,noIP
2,215,15,5,2,4,CAKE,SNMUO,3,S,CAKES,16,NA,0,0,NA,NA,noIP
2,215,15,5,2,5,NA,NMUOM,3,MOU,MOU,4,NA,0,0,NA,NA,noIP
2,215,15,5,2,6,NA,NMD,3,NA,NA,0,NA,0,0,NA,NA,noIP
2,215,15,5,2,7,MOU,NMDU,3,D,MOUD,6,NA,0,0,NA,NA,noIP
2,215,15,5,2,8,NA,NMUF,3,FUN,FUN,6,NA,0,0,NA,NA,noIP
2,215,15,5,2,9,MOU,ME,3,E,MOUE,5,NA,0,0,NA,NA,noIP
2,215,15,5,2,10,POSA,MI,3,I,POSAI,7,NA,0,0,NA,NA,noIP
3,301,1,1,1,1,NA,ERNTP,1,PET,PET,5,0,0,0,NA,0,IP
3,301,1,1,1,2,PETE,RNS,1,S,PETES,6.4,0,2.5,0.6,NA,0,IP
3,301,1,1,1,3,PETE,RNE,1,E,PETEE,6.4,0,0,0.6,NA,0,IP
3,301,1,1,1,4,PETA,RNT,1,T,PETAT,6.5,0,0,0.5,NA,0,IP
3,301,1,1,1,5,POSA,RNI,1,I,POSAI,7,0,0,0,NA,0,IP
3,301,1,1,1,6,PETE,RNE,1,R,PETER,6.4,0,0,0.6,NA,0,IP
3,301,1,1,1,7,NA,NEA,1,NA,NA,0,NA,0,0,1,0,IP
3,301,1,1,1,8,MAL,NEAE,1,E,MALE,2.2,0,0,2.8,NA,0,IP
3,301,1,1,1,9,PETANT,"NAEE",1,E,PETANTE,8,0,0,1,NA,0,IP
3,301,1,1,1,10,PETER,"NAEE",1,A,PETERA,7.4,0,0,0.6,NA,0,IP
3,301,1,1,2,1,ORAL,LLEGE,1,E,ORALE,5,NA,0,0,NA,0,noIP
3,301,1,1,2,2,POILU,LLGEA,1,E,POILUE,8,NA,0,0,NA,0,noIP
3,301,1,1,2,3,ORALE,LLGAM,1,M,MORALE,7,NA,0,0,NA,0,noIP
3,301,1,1,2,4,MORALE,LLGAR,1,A,AMORALE,8,NA,0,0,NA,0,noIP
3,301,1,1,2,5,GON,LLGRY,1,G,GONG,6,NA,0,0,NA,0,noIP
3,301,1,1,2,6,NA,LLRYT,1,NA,NA,0,NA,0,0,1,0,noIP
3,301,1,1,2,7,BAH,LLRYTT,1,T,BATH,9,NA,0,0,NA,0,noIP
3,301,1,1,2,8,NA,LLRYTT,1,NA,NA,0,NA,0,0,1,0,noIP
3,301,1,1,2,9,IDEE,LLRYTTV,1,V,VIDEE,9,NA,0,0,NA,0,noIP
3,301,1,1,2,10,NA,LLRYTTN,1,NA,NA,0,0,0,0,1,0,noIP
3,302,2,1,1,1,CEDE,VEIGH,2,E,CEDEE,8,100,0,0,NA,0,IP
3,302,2,1,1,2,DINA,VIGHN,2,I,DINAI,3.5,100,0,2.5,NA,0,IP
3,302,2,1,1,3,PET,VGHNA,2,A,PETA,6,50,0,0,NA,0,IP
3,302,2,1,1,4,NA,VGHNI,2,VIN,VIN,6,50,2.5,0,NA,0,IP
3,302,2,1,1,5,NA,GHN,2,NA,NA,0,NA,0,0,NA,0,IP
3,302,2,1,1,6,NA,GHNN,2,NA,NA,0,NA,0,0,1,0,IP
3,302,2,1,1,7,PETAT,GHNNI,2,I,PETAIT,8,30,0,0,NA,0,IP
3,302,2,1,1,8,PETAT,GHNNN,2,N,PETANT,8,50,0,0,NA,0,IP
3,302,2,1,1,9,NOUES,GHNNE,2,E,NOUEES,5.4,30,1,0.6,NA,0,IP
3,302,2,1,1,10,PETERA,GHNNI,2,I,PETERAI,8.4,40,0,0.6,NA,0,IP
3,302,2,1,2,1,POIL,UHNOG,2,U,POILU,7,NA,0,0,NA,0,noIP
3,302,2,1,2,2,NA,HNOGW,2,NA,NA,0,0,0,0,1,0,noIP
3,302,2,1,2,3,IDEE,HNOGWR,2,R,RIDEE,6,NA,0,0,NA,0,noIP
3,302,2,1,2,4,NA,HNOGWB,2,GON,GON,4,NA,0,0,NA,0,noIP
3,302,2,1,2,5,NA,HWBO,2,NA,NA,0,0,0,0,1,0,noIP
3,302,2,1,2,6,NA,HWBOR,2,NA,NA,0,NA,0,0,1,0,noIP
3,302,2,1,2,7,NA,HWBORI,2,NA,NA,0,NA,0,0,1,0,noIP
3,302,2,1,2,8,NA,HWBORIL,2,ROI,ROI,3,NA,0,0,NA,0,noIP
3,302,2,1,2,9,NA,HWBLO,2,NA,NA,0,NA,0,0,1,0,noIP
3,302,2,1,2,10,NA,HWBLON,2,LOB,LOB,5,NA,0,0,NA,0,noIP
3,303,3,1,1,1,PET,PEQML,3,E,PETE,6,60,0,0,NA,1,IP
3,303,3,1,1,2,NA,PQMLL,3,NA,NA,0,0,0.6,0,1,1,IP
3,303,3,1,1,3,NA,PQMLLA,3,MAL,MAL,4,70,0.6,0,NA,1,IP
3,303,3,1,1,4,NUES,PQLO,3,O,NOUES,3,60,0,2,NA,1,IP
3,303,3,1,1,5,NA,PQLJ,3,NA,NA,0,NA,0,0,1,1,IP
3,303,3,1,1,6,NA,PQLJM,3,NA,NA,0,0,0.6,0,1,1,IP
3,303,3,1,1,7,NA,PQLJMJ,3,NA,NA,0,NA,0,0,1,1,IP
3,303,3,1,1,8,NA,PQLJMJV,3,NA,NA,0,0,2.8,0,1,1,IP
3,303,3,1,1,9,NA,PQLJMJVE,3,NA,NA,0,0,0.6,0,1,1,IP
3,303,3,1,1,10,"NAGE",PQLJMJVEM,3,E,"NAGEE",6,50,1.2,0,NA,1,IP
3,303,3,1,2,1,NA,AGESU,3,AUGES,AUGES,6,NA,0,0,NA,1,noIP
3,303,3,1,2,2,LIEU,E,3,E,LIEUE,5,NA,0,0,NA,1,noIP
3,303,3,1,2,3,AUGES,B,3,B,BAUGES,9,NA,0,0,NA,1,noIP
3,303,3,1,2,4,NA,H,3,NA,NA,0,0,0,0,1,1,noIP
3,303,3,1,2,5,NA,HA,3,NA,NA,0,0,0,0,1,1,noIP
3,303,3,1,2,6,NA,HAB,3,BAH,BAH,8,NA,0,0,NA,1,noIP
3,303,3,1,2,7,SORS,I,3,I,SOIRS,5,NA,0,0,NA,1,noIP
3,303,3,1,2,8,NA,O,3,NA,NA,0,0,0,0,1,1,noIP
3,303,3,1,2,9,VIDEE,OE,3,E,EVIDEE,10,NA,0,0,NA,1,noIP
3,303,3,1,2,10,NA,ON,3,NA,NA,0,0,0,0,1,1,noIP
3,304,4,2,1,1,NA,LERLO,1,ROLE,ROLE,4,30,1.2,0,NA,0,IP
3,304,4,2,1,2,POSA,LI,1,I,POSAI,7,30,0,0,NA,0,IP
3,304,4,2,1,3,ROULE,LR,1,R,ROULER,5.5,30,1.5,0.5,NA,0,IP
3,304,4,2,1,4,NA,LN,1,NA,NA,0,NA,1.2,0,1,0,IP
3,304,4,2,1,5,POSAI,LNT,1,T,POSAIT,8,20,0,0,NA,0,IP
3,304,4,2,1,6,ROULES,LNE,1,E,ROULEES,6.5,20,0,0.5,NA,0,IP
3,304,4,2,1,7,"NAGE",LNR,1,R,"NAGER",3.5,20,0,2.5,NA,0,IP
3,304,4,2,1,8,"NAGER",LNA,1,A,"NAGERA",4.5,20,1.2,2.5,NA,0,IP
3,304,4,2,1,9,NA,LNO,1,NA,NA,0,NA,0,0,NA,0,IP
3,304,4,2,1,10,NA,LNOL,1,NA,NA,0,NA,0,0,NA,0,IP
3,304,4,2,2,1,POIL,UPFRV,1,U,POILU,7,NA,0,0,NA,0,noIP
3,304,4,2,2,2,POILE,PFRVV,1,R,POILER,8,NA,0,0,NA,0,noIP
3,304,4,2,2,3,IDEE,PFVVE,1,V,VIDEE,9,NA,0,0,NA,0,noIP
3,304,4,2,2,4,NA,PFVEA,1,PAVE,PAVE,9,NA,0,0,NA,0,noIP
3,304,4,2,2,5,POILE,FZ,1,Z,POILEZ,17,NA,0,0,NA,0,noIP
3,304,4,2,2,6,NA,FD,1,NA,NA,0,NA,0,0,NA,0,noIP
3,304,4,2,2,7,EPAVE,FDS,1,S,EPAVES,11,NA,0,0,NA,0,noIP
3,304,4,2,2,8,PAVE,FDE,1,E,PAVEE,10,NA,0,0,NA,0,noIP
3,304,4,2,2,9,NA,FDT,1,NA,NA,0,NA,0,0,NA,0,noIP
3,304,4,2,2,10,MORALE,FDTA,1,A,AMORALE,8,NA,0,0,NA,0,noIP
3,305,5,2,1,1,ROLE,AAAUI,2,U,ROULE,3.8,50,0,1.2,NA,0,IP
3,305,5,2,1,2,CEDE,AAAIS,2,S,CEDES,8,20,2,0,NA,0,IP
3,305,5,2,1,3,NA,AAAIH,2,NA,NA,0,NA,1,0,1,0,IP
3,305,5,2,1,4,ROULE,AAAIHS,2,S,ROULES,4.8,0,3.7,1.2,NA,0,IP
3,305,5,2,1,5,NA,AAAIHT,2,HAIT,HAIT,7,20,3.5,0,NA,0,IP
3,305,5,2,1,6,NA,AAL,2,NA,NA,0,NA,2.5,0,1,0,IP
3,305,5,2,1,7,NA,AALN,2,NA,NA,0,NA,0,0,1,0,IP
3,305,5,2,1,8,NA,AALNQ,2,NA,NA,0,NA,0,0,1,0,IP
3,305,5,2,1,9,NUES,AALNQO,2,O,NOUES,5,40,0,0,NA,0,IP
3,305,5,2,1,10,NA,AALNQP,2,PLAN,PLAN,6,60,0,0,NA,0,IP
3,305,5,2,2,1,POIL,KEDEA,2,E,POILE,7,NA,0,0,NA,0,noIP
3,305,5,2,2,2,POILER,KDEAE,2,A,POILERA,9,NA,0,0,NA,0,noIP
3,305,5,2,2,3,POILU,KDEEE,2,E,POILUE,8,NA,0,0,NA,0,noIP
3,305,5,2,2,4,POILUS,KDEET,2,E,POILUES,9,NA,0,0,NA,0,noIP
3,305,5,2,2,5,NA,KDETI,2,KIT,KIT,12,NA,0,0,NA,0,noIP
3,305,5,2,2,6,PAVE,DEE,2,E,EPAVE,10,NA,0,0,NA,0,noIP
3,305,5,2,2,7,POIL,DEA,2,A,POILA,7,NA,0,0,NA,0,noIP
3,305,5,2,2,8,ORAL,DEE,2,E,ORALE,5,NA,0,0,NA,0,noIP
3,305,5,2,2,9,VOUS,DEL,2,E,VOUES,8,NA,0,0,NA,0,noIP
3,305,5,2,2,10,NA,DLA,2,DAL,DAL,4,NA,0,0,NA,0,noIP
3,306,6,2,1,1,NA,IEBEN,3,BIEN,BIEN,6,50,0,0,NA,0,IP
3,306,6,2,1,2,NUES,EA,3,E,NUEES,3,100,0,2,NA,0,IP
3,306,6,2,1,3,ROULER,AL,3,A,ROULERA,5,100,0,2,NA,0,IP
3,306,6,2,1,4,CEDES,LE,3,E,CEDEES,5.3,100,0,3.7,NA,0,IP
3,306,6,2,1,5,CEDE,LR,3,R,CEDER,4.5,100,0,3.5,NA,0,IP
3,306,6,2,1,6,NUEES,LO,3,O,NOUEES,4,100,0,2,NA,0,IP
3,306,6,2,1,7,"NAGE",LE,3,E,"NAGEE",6,100,2.5,0,NA,0,IP
3,306,6,2,1,8,ROLE,LV,3,L,ROLLE,3.8,100,2.5,1.2,NA,0,IP
3,306,6,2,1,9,NA,VF,3,NA,NA,0,NA,0,0,1,0,IP
3,306,6,2,1,10,NA,VFD,3,NA,NA,0,0,0,0,1,0,IP
3,306,6,2,2,1,POILU,NSWOI,3,S,POILUS,8,NA,0,0,NA,0,noIP
3,306,6,2,2,2,NA,NWOIC,3,NA,NA,0,0,0,0,1,0,noIP
3,306,6,2,2,3,POILE,NWOICE,3,E,POILEE,8,NA,0,0,NA,0,noIP
3,306,6,2,2,4,NA,NWOICN,3,NA,NA,0,0,0,0,1,0,noIP
3,306,6,2,2,5,NA,NWOICNB,3,NA,NA,0,NA,0,0,1,0,noIP
3,306,6,2,2,6,ORAL,NWOICNBM,3,M,MORAL,6,NA,0,0,NA,0,noIP
3,306,6,2,2,7,MORAL,NWOICNBE,3,E,MORALE,7,NA,0,0,NA,0,noIP
3,306,6,2,2,8,POILERA,NWOICNBD,3,I,POILERAI,10,NA,0,0,NA,0,noIP
3,306,6,2,2,9,VOUES,NWOCNBDA,3,A,AVOUES,9,NA,0,0,NA,0,noIP
3,306,6,2,2,10,NA,NWOCNBDH,3,NA,NA,0,0,0,0,1,0,noIP
3,307,7,3,1,1,"NAGE",RCJTR,1,R,"NAGER",3.5,20,0,2.5,NA,0,IP
3,307,7,3,1,2,CEDE,CJTRN,1,R,CEDER,4.5,50,0,3.5,NA,0,IP
3,307,7,3,1,3,NA,CJTNC,1,NA,NA,0,NA,0,0,1,0,IP
3,307,7,3,1,4,"NAGEA",CJTNCU,1,T,"NAGEAT",4.2,40,0,2.8,NA,0,IP
3,307,7,3,1,5,NA,CJNCUH,1,CHU,CHU,8,40,0,0,NA,0,IP
3,307,7,3,1,6,NA,JNCK,1,NA,NA,0,NA,0,0,NA,0,IP
3,307,7,3,1,7,NA,JNCKO,1,CON,CON,5,30,3.2,0,NA,0,IP
3,307,7,3,1,8,TENUS,JKE,1,E,TENUES,3.5,50,0,2.5,NA,0,IP
3,307,7,3,1,9,NA,JKN,1,NA,NA,0,0,0,0,1,0,IP
3,307,7,3,1,10,CHOU,JKNX,1,X,CHOUX,18.5,60,0,0.5,NA,0,IP
3,307,7,3,2,1,POIL,UCCAN,1,U,POILU,7,NA,0,0,NA,0,noIP
3,307,7,3,2,2,POILE,CCANR,1,R,POILER,8,NA,0,0,NA,0,noIP
3,307,7,3,2,3,POILER,CCANU,1,A,POILERA,9,NA,0,0,NA,0,noIP
3,307,7,3,2,4,POILUS,CCNUE,1,E,POILUES,9,NA,0,0,NA,0,noIP
3,307,7,3,2,5,NA,CCNUO,1,COCU,COCU,8,NA,0,0,NA,0,noIP
3,307,7,3,2,6,NEE,NM,1,M,NEEM,5,NA,0,0,NA,0,noIP
3,307,7,3,2,7,NA,NM,1,NA,NA,0,0,0,0,1,0,noIP
3,307,7,3,2,8,POILERAS,NMI,1,I,POILERAIS,11,NA,0,0,NA,0,noIP
3,307,7,3,2,9,VIDEE,NMS,1,S,VIDEES,10,NA,0,0,NA,0,noIP
3,307,7,3,2,10,NA,NMN,1,NA,NA,0,0,0,0,1,0,noIP
3,308,8,3,1,1,NA,OTAEN,2,NOTE,NOTE,4,100,0,0,NA,0,IP
3,308,8,3,1,2,NA,AI,2,NA,NA,0,NA,3.5,0,1,0,IP
3,308,8,3,1,3,NA,AIA,2,NA,NA,0,NA,0,0,1,0,IP
3,308,8,3,1,4,NA,AIAG,2,NA,NA,0,NA,0,0,1,0,IP
3,308,8,3,1,5,CEDE,AIAGE,2,E,CEDEE,8,100,0,0,NA,0,IP
3,308,8,3,1,6,TENU,AIAGE,2,E,TENUE,3,100,4,2,NA,0,IP
3,308,8,3,1,7,NA,AIAGA,2,GAI,GAI,4,100,0,0,NA,0,IP
3,308,8,3,1,8,NA,AAH,2,NA,NA,0,NA,0,0,1,0,IP
3,308,8,3,1,9,NA,AAHL,2,NA,NA,0,NA,0,0,1,0,IP
3,308,8,3,1,10,NA,AAHLC,2,LAC,LAC,5,100,0,0,NA,0,IP
3,308,8,3,2,1,LIEU,XOUAR,2,X,LIEUX,14,NA,0,0,NA,0,noIP
3,308,8,3,2,2,POILU,OUARS,2,S,POILUS,8,NA,0,0,NA,0,noIP
3,308,8,3,2,3,NA,OUARA,2,ARA,ARA,3,NA,0,0,NA,0,noIP
3,308,8,3,2,4,NA,OUC,2,COU,COU,5,NA,0,0,NA,0,noIP
3,308,8,3,2,5,NA,U,2,NA,NA,0,NA,0,0,1,0,noIP
3,308,8,3,2,6,ARA,UU,2,U,AURA,4,NA,0,0,NA,0,noIP
3,308,8,3,2,7,COU,UP,2,P,COUP,8,NA,0,0,NA,0,noIP
3,308,8,3,2,8,IDEE,UV,2,V,VIDEE,9,NA,0,0,NA,0,noIP
3,308,8,3,2,9,VOUS,UE,2,E,VOUES,8,NA,0,0,NA,0,noIP
3,308,8,3,2,10,VOUES,UA,2,A,AVOUES,9,NA,0,0,NA,0,noIP
3,309,9,3,1,1,NA,RHOTG,3,HOT,HOT,6,30,2.5,0,NA,0,IP
3,309,9,3,1,2,"NAGE",RGA,3,A,"NAGEA",6,30,0,0,NA,0,IP
3,309,9,3,1,3,"NAGEA",RGS,3,R,"NAGERA",7,50,0,0,NA,0,IP
3,309,9,3,1,4,"NAGERA",GSS,3,S,"NAGERAS",8,50,2.8,0,NA,0,IP
3,309,9,3,1,5,TENU,GSR,3,S,TENUS,5,50,0,0,NA,0,IP
3,309,9,3,1,6,NOTE,GRM,3,R,NOTER,1,50,2,4,NA,0,IP
3,309,9,3,1,7,CHU,GMO,3,O,CHOU,5.8,50,0,3.2,NA,0,IP
3,309,9,3,1,8,NA,GMA,3,NA,NA,0,0,2.5,0,1,0,IP
3,309,9,3,1,9,NA,GMAE,3,MEGA,MEGA,6,50,0,0,NA,0,IP
3,309,9,3,1,10,NA,R,3,NA,NA,0,0,0.5,0,1,0,IP
3,309,9,3,2,1,POIL,EENTO,3,E,POILE,7,NA,0,0,NA,0,noIP
3,309,9,3,2,2,SORS,ENTOE,3,T,SORTS,5,NA,0,0,NA,0,noIP
3,309,9,3,2,3,NA,ENOEE,3,NEE,NEE,3,NA,0,0,NA,0,noIP
3,309,9,3,2,4,ARA,OEM,3,M,MARA,5,NA,0,0,NA,0,noIP
3,309,9,3,2,5,POILE,OEO,3,E,POILEE,8,NA,0,0,NA,0,noIP
3,309,9,3,2,6,NA,OOU,3,NA,NA,0,NA,0,0,1,0,noIP
3,309,9,3,2,7,POILERA,OOUS,3,S,POILERAS,10,NA,0,0,NA,0,noIP
3,309,9,3,2,8,COUP,OOUE,3,E,COUPE,9,NA,0,0,NA,0,noIP
3,309,9,3,2,9,SORS,OOUE,3,E,SORES,5,NA,0,0,NA,0,noIP
3,309,9,3,2,10,POILERA,OOUI,3,I,POILERAI,10,NA,0,0,NA,0,noIP
3,310,10,4,1,1,NA,PREAR,1,PRE,PRE,5,70,0,0,NA,1,IP
3,310,10,4,1,2,CEDE,ARD,1,R,CEDER,4.5,70,3.5,3.5,NA,1,IP
3,310,10,4,1,3,PRET,ADE,1,E,PRETE,6.2,60,0,0.8,NA,1,IP
3,310,10,4,1,4,NA,ADH,1,NA,NA,0,NA,3,0,1,1,IP
3,310,10,4,1,5,NA,ADHT,1,NA,NA,0,NA,0,0,NA,1,IP
3,310,10,4,1,6,NA,ADHTM,1,MAT,MAT,4,50,0,0,NA,1,IP
3,310,10,4,1,7,PRETE,DHR,1,R,PRETRE,7.2,40,2,0.8,NA,1,IP
3,310,10,4,1,8,NA,DHM,1,NA,NA,0,NA,2,0,NA,1,IP
3,310,10,4,1,9,NA,DHMM,1,NA,NA,0,0,0,0,1,1,IP
3,310,10,4,1,10,NA,DHMMN,1,NA,NA,0,NA,4.1,0,1,1,IP
3,310,10,4,2,1,SORS,ODAOI,1,I,SOIRS,5,NA,0,0,NA,1,noIP
3,310,10,4,2,2,NA,ODAOV,1,NA,NA,0,NA,0,0,NA,1,noIP
3,310,10,4,2,3,NA,ODAOVC,1,VOC,VOC,8,NA,0,0,NA,1,noIP
3,310,10,4,2,4,NA,DAOD,1,NA,NA,0,NA,0,0,1,1,noIP
3,310,10,4,2,5,POIL,DAODH,1,A,POILA,7,NA,0,0,NA,1,noIP
3,310,10,4,2,6,NA,DODHI,1,NA,NA,0,0,0,0,1,1,noIP
3,310,10,4,2,7,NA,DODHIU,1,DUO,DUO,4,NA,0,0,NA,1,noIP
3,310,10,4,2,8,NA,DHIU,1,NA,NA,0,NA,0,0,1,1,noIP
3,310,10,4,2,9,NA,DHIUE,1,HUE,HUE,6,NA,0,0,NA,1,noIP
3,310,10,4,2,10,POILAS,DIJ,1,I,POILAIS,9,NA,0,0,NA,1,noIP
3,311,11,4,1,1,CEDE,LEPZN,2,Z,CEDEZ,17,50,0,0,NA,0,IP
3,311,11,4,1,2,"NAGE",LEPNS,2,S,"NAGES",3.5,60,3.5,2.5,NA,0,IP
3,311,11,4,1,3,NA,LEPNE,2,PENE,PENE,6,60,0,0,NA,0,IP
3,311,11,4,1,4,NUES,LE,2,E,NUEES,5,70,0,0,NA,0,IP
3,311,11,4,1,5,CEDE,LS,2,S,CEDES,8,70,0,0,NA,0,IP
3,311,11,4,1,6,NA,LE,2,NA,NA,0,NA,3.6,0,NA,0,IP
3,311,11,4,1,7,CEDES,LEU,2,E,CEDEES,9,60,0,0,NA,0,IP
3,311,11,4,1,8,NA,LUR,2,NA,NA,0,NA,0,0,NA,0,IP
3,311,11,4,1,9,"NAGE",LURA,2,R,"NAGER",3.5,60,0,2.5,NA,0,IP
3,311,11,4,1,10,NA,LUAT,2,TUA,TUA,3,70,0,0,NA,0,IP
3,311,11,4,2,1,NA,"NARLQ",2,NA,NA,0,NA,0,0,NA,0,noIP
3,311,11,4,2,2,ORAL,"NARLQE",2,E,ORALE,5,NA,0,0,NA,0,noIP
3,311,11,4,2,3,NA,"NARLQE",2,LARE,LARE,4,NA,0,0,NA,0,noIP
3,311,11,4,2,4,NA,NQL,2,NA,NA,0,NA,0,0,NA,0,noIP
3,311,11,4,2,5,NA,NQLT,2,NA,NA,0,NA,0,0,NA,0,noIP
3,311,11,4,2,6,VOUS,NQLTE,2,E,VOUES,8,NA,0,0,NA,0,noIP
3,311,11,4,2,7,NA,NQLTB,2,NA,NA,0,NA,0,0,NA,0,noIP
3,311,11,4,2,8,POILUE,NQLTBS,2,S,POILUES,9,NA,0,0,NA,0,noIP
3,311,11,4,2,9,POILA,NQLTBS,2,S,POILAS,8,NA,0,0,NA,0,noIP
3,311,11,4,2,10,NA,NQLTBL,2,NA,NA,0,0,0,0,1,0,noIP
3,312,12,4,1,1,"NAGE",EHNLG,3,E,"NAGEE",6,50,0,0,NA,0,IP
3,312,12,4,1,2,PRE,HNLGT,3,T,PRET,2.5,80,2.5,3.5,NA,0,IP
3,312,12,4,1,3,NA,HNLGT,3,NA,NA,0,0,0.8,0,1,0,IP
3,312,12,4,1,4,POSA,HNLGTG,3,T,POSAT,4,100,0,3,NA,0,IP
3,312,12,4,1,5,NA,HNLGGM,3,NA,NA,0,0,0,0,1,0,IP
3,312,12,4,1,6,PENE,HNLGGME,3,N,PENNE,3.4,100,0,3.6,NA,0,IP
3,312,12,4,1,7,MAT,HLGGMEU,3,E,MATE,3,100,0.8,2,NA,0,IP
3,312,12,4,1,8,MAT,HLGGMUR,3,U,MATU,3,100,0,2,NA,0,IP
3,312,12,4,1,9,TENU,HLGGMRE,3,E,TENUE,5,100,2.5,0,NA,0,IP
3,312,12,4,1,10,PRETE,HLGGMRY,3,R,PRETER,3.9,90,0,4.1,NA,0,IP
3,312,12,4,2,1,POIL,RUDOO,3,U,POILU,7,NA,0,0,NA,0,noIP
3,312,12,4,2,2,NA,RDOON,3,NA,NA,0,0,0,0,1,0,noIP
3,312,12,4,2,3,POILU,RDOONE,3,E,POILUE,8,NA,0,0,NA,0,noIP
3,312,12,4,2,4,LARE,RDOONB,3,B,LABRE,7,NA,0,0,NA,0,noIP
3,312,12,4,2,5,LARE,RDOONU,3,U,LAURE,5,NA,0,0,NA,0,noIP
3,312,12,4,2,6,LARE,RDOONI,3,D,LADRE,6,NA,0,0,NA,0,noIP
3,312,12,4,2,7,NA,ROONIQ,3,ROI,ROI,3,NA,0,0,NA,0,noIP
3,312,12,4,2,8,NA,ONQL,3,NA,NA,0,0,0,0,1,0,noIP
3,312,12,4,2,9,NA,ONQLB,3,BOL,BOL,5,NA,0,0,NA,0,noIP
3,312,12,4,2,10,HUE,NQG,3,N,HUNE,7,NA,0,0,1,0,noIP
3,313,13,5,1,1,POSA,USFCL,1,S,POSAS,7,30,0,0,NA,0,IP
3,313,13,5,1,2,RENE,UFCLI,1,F,FRENE,6.4,80,0,1.6,NA,0,IP
3,313,13,5,1,3,NA,UCLIB,1,BIC,BIC,7,60,0,0,NA,0,IP
3,313,13,5,1,4,POSAS,ULT,1,T,POSTAS,8,70,0,0,NA,0,IP
3,313,13,5,1,5,NA,ULC,1,CUL,CUL,5,80,0,0,NA,0,IP
3,313,13,5,1,6,CEDER,A,1,A,CEDERA,4.7,80,0,4.3,NA,0,IP
3,313,13,5,1,7,POSTAS,I,1,I,POSTAIS,9,90,0,0,NA,0,IP
3,313,13,5,1,8,DINA,R,1,R,DINAR,6,70,0,0,NA,0,IP
3,313,13,5,1,9,NA,X,1,NA,NA,0,NA,0,0,1,0,IP
3,313,13,5,1,10,CEDERA,XS,1,S,CEDERAS,5.7,80,0,4.3,NA,0,IP
3,313,13,5,2,1,NA,QPSNQ,1,NA,NA,0,NA,0,0,1,0,noIP
3,313,13,5,2,2,SORS,QPSNQT,1,T,SORTS,5,NA,0,0,1,0,noIP
3,313,13,5,2,3,SORTS,QPSNQL,1,P,SPORTS,8,NA,0,0,NA,0,noIP
3,313,13,5,2,4,NA,QSNQLT,1,NA,NA,0,NA,0,0,1,0,noIP
3,313,13,5,2,5,DAN,QSNQLTN,1,S,DANS,5,NA,0,0,NA,0,noIP
3,313,13,5,2,6,NA,QNQLTNN,1,NA,NA,0,NA,0,0,NA,0,noIP
3,313,13,5,2,7,NA,QNQLTNNM,1,NA,NA,0,NA,0,0,NA,0,noIP
3,313,13,5,2,8,DANSER,QNQLTNNMA,1,A,DANSERA,8,NA,0,0,NA,0,noIP
3,313,13,5,2,9,NA,QNQLTNNME,1,MENT,MENT,5,NA,0,0,NA,0,noIP
3,313,13,5,2,10,VOUAS,QQLNNA,1,A,AVOUAS,9,NA,0,0,NA,0,noIP
3,314,14,5,1,1,NA,RERNE,2,RENE,RENE,4,40,0,0,NA,1,IP
3,314,14,5,1,2,CEDE,RT,2,R,CEDER,8,80,1.6,0,NA,1,IP
3,314,14,5,1,3,NA,TU,2,NA,NA,0,NA,0,0,NA,1,IP
3,314,14,5,1,4,NA,TUU,2,NA,NA,0,NA,0,0,NA,1,IP
3,314,14,5,1,5,NA,TUUM,2,NA,NA,0,NA,0,0,1,1,IP
3,314,14,5,1,6,NA,TUUMU,2,MUT,MUT,4,100,7.8,0,NA,1,IP
3,314,14,5,1,7,NA,UUG,2,NA,NA,0,NA,0,0,NA,1,IP
3,314,14,5,1,8,NA,UUGB,2,BUG,BUG,6,80,4,0,NA,1,IP
3,314,14,5,1,9,NA,UU,2,NA,NA,0,NA,0,0,NA,1,IP
3,314,14,5,1,10,NA,UUR,2,NA,NA,0,NA,4.3,0,NA,1,IP
3,314,14,5,2,1,POIL,DAUNN,2,U,POILU,7,NA,0,0,NA,1,noIP
3,314,14,5,2,2,NA,DANNA,2,DAN,DAN,4,NA,0,0,NA,1,noIP
3,314,14,5,2,3,POILU,"NAE",2,E,POILUE,8,NA,0,0,NA,1,noIP
3,314,14,5,2,4,ORAL,"NAM",2,M,MORAL,6,NA,0,0,NA,1,noIP
3,314,14,5,2,5,NA,"NAC",2,NA,NA,0,NA,0,0,NA,1,noIP
3,314,14,5,2,6,DANS,"NACA",2,A,DANSA,6,NA,0,0,NA,1,noIP
3,314,14,5,2,7,DANSE,NCAR,2,R,DANSER,7,NA,0,0,NA,1,noIP
3,314,14,5,2,8,DANSERA,NCAS,2,S,DANSERAS,9,NA,0,0,NA,1,noIP
3,314,14,5,2,9,NA,NCAO,2,NA,NA,0,NA,0,0,1,1,noIP
3,314,14,5,2,10,LENTS,NCAOO,2,O,LENTOS,6,NA,0,0,1,1,noIP
3,315,15,5,1,1,NA,NUTUW,3,NA,NA,0,NA,0,0,NA,0,IP
3,315,15,5,1,2,NA,NUTUWU,3,NA,NA,0,NA,0,0,NA,0,IP
3,315,15,5,1,3,NA,NUTUWUT,3,TUTU,TUTU,4,0,0,0,NA,0,IP
3,315,15,5,1,4,NA,NWUJ,3,NA,NA,0,NA,0,0,NA,0,IP
3,315,15,5,1,5,NA,NWUJS,3,JUS,JUS,10,50,0,0,NA,0,IP
3,315,15,5,1,6,CEDE,NWE,3,E,CEDEE,4.5,50,0,3.5,NA,0,IP
3,315,15,5,1,7,"NAGE",NWA,3,A,"NAGEA",6,20,0,0,NA,0,IP
3,315,15,5,1,8,MUT,NWA,3,A,MUTA,1,20,0,4,NA,0,IP
3,315,15,5,1,9,NA,NWL,3,NA,NA,0,NA,0,0,NA,0,IP
3,315,15,5,1,10,NA,NWLN,3,NA,NA,0,NA,0,0,NA,0,IP
3,315,15,5,2,1,POILU,SNSTS,3,S,POILUS,8,NA,0,0,NA,0,noIP
3,315,15,5,2,2,IDEE,NSTSS,3,S,IDEES,6,NA,0,0,NA,0,noIP
3,315,15,5,2,3,POILUE,NTSSL,3,S,POILUES,9,NA,0,0,NA,0,noIP
3,315,15,5,2,4,VOUS,NTSLA,3,A,VOUAS,8,NA,0,0,NA,0,noIP
3,315,15,5,2,5,NA,NTSLT,3,NA,NA,0,NA,0,0,1,0,noIP
3,315,15,5,2,6,DANS,NTSLTE,3,E,DANSE,6,NA,0,0,NA,0,noIP
3,315,15,5,2,7,NA,NTSLTW,3,NA,NA,0,NA,0,0,1,0,noIP
3,315,15,5,2,8,NA,NTSLTWF,3,NA,NA,0,NA,0,0,1,0,noIP
3,315,15,5,2,9,NA,NTSLTWFE,3,LENTS,LENTS,5,NA,0,0,NA,0,noIP
3,315,15,5,2,10,NA,TWFI,3,FIT,FIT,6,NA,0,0,NA,0,noIP
4,401,1,1,1,1,POIL,IEAAS,1,S,POILS,7,30,0,0,NA,NA,IP
4,401,1,1,1,2,TENU,IEAAT,1,E,TENUE,5,40,0,0,NA,NA,IP
4,401,1,1,1,3,NA,IAATJ,1,NA,NA,0,NA,0,0,1,NA,IP
4,401,1,1,1,4,NA,IAATJR,1,JAR,JAR,10,60,0,0,NA,NA,IP
4,401,1,1,1,5,DINA,IATV,1,I,DINAI,3.5,40,0,2.5,NA,NA,IP
4,401,1,1,1,6,IDEE,ATVA,1,V,VIDEE,6.5,40,0.4,2.5,NA,NA,IP
4,401,1,1,1,7,VOL,ATAU,1,A,VOLA,2.2,40,0,4.8,NA,NA,IP
4,401,1,1,1,8,NA,TAUX,1,TAUX,TAUX,13,60,0,0,NA,NA,IP
4,401,1,1,1,9,NA,M,1,NA,NA,0,0,0,0,1,NA,IP
4,401,1,1,1,10,PELEZ,MO,1,O,POELEZ,6.8,50,0,10.2,NA,NA,IP
4,401,1,1,2,1,VOUS,LIADT,1,A,VOUAS,8,NA,0,0,NA,NA,noIP
4,401,1,1,2,2,POSA,LIDTG,1,I,POSAI,7,NA,0,0,NA,NA,noIP
4,401,1,1,2,3,POSA,LDTGI,1,T,POSTA,7,NA,0,0,NA,NA,noIP
4,401,1,1,2,4,FOIE,LDGID,1,L,FOLIE,8,NA,0,0,NA,NA,noIP
4,401,1,1,2,5,FOIRE,DGIDE,1,E,FOIREE,9,NA,0,0,NA,NA,noIP
4,401,1,1,2,6,POSTA,DGIDV,1,I,POSTAI,8,NA,0,0,NA,NA,noIP
4,401,1,1,2,7,VOL,DGDVE,1,E,VOLE,7,NA,0,0,NA,NA,noIP
4,401,1,1,2,8,NA,DGDVF,1,NA,NA,0,NA,0,0,1,NA,noIP
4,401,1,1,2,9,NA,DGDVFN,1,NA,NA,0,0,0,0,1,NA,noIP
4,401,1,1,2,10,MORAL,DGDVFNE,1,E,MORALE,7,NA,0,0,NA,NA,noIP
4,402,2,1,1,1,NA,NVOLL,2,VOL,VOL,6,80,0,0,NA,NA,IP
4,402,2,1,1,2,NA,NLF,2,NA,NA,0,0,0,0,1,NA,IP
4,402,2,1,1,3,NA,NLFM,2,NA,NA,0,0,0,0,1,NA,IP
4,402,2,1,1,4,NA,NLFME,2,NEF,NEF,6,80,0,0,NA,NA,IP
4,402,2,1,1,5,NEF,LMS,2,S,NEFS,7,80,2.5,0,NA,NA,IP
4,402,2,1,1,6,NA,LMH,2,NA,NA,0,0,2.5,0,1,NA,IP
4,402,2,1,1,7,NA,LMHC,2,NA,NA,0,0,4.8,0,1,NA,IP
4,402,2,1,1,8,NA,LMHCO,2,COM,COM,6,80,0,0,NA,NA,IP
4,402,2,1,1,9,PELE,LHR,2,R,PELER,2.8,80,0,4.2,NA,NA,IP
4,402,2,1,1,10,VOL,LHT,2,T,VOLT,7,80,0,0,NA,NA,IP
4,402,2,1,2,1,NA,SHJIM,2,MIS,MIS,4,NA,0,0,NA,NA,noIP
4,402,2,1,2,2,NA,HJC,2,NA,NA,0,NA,0,0,1,NA,noIP
4,402,2,1,2,3,"NAGE",HJCR,2,R,"NAGER",6,NA,0,0,NA,NA,noIP
4,402,2,1,2,4,CEDE,HJCE,2,E,CEDEE,8,NA,0,0,NA,NA,noIP
4,402,2,1,2,5,CEDE,HJCR,2,R,CEDRE,8,NA,0,0,NA,NA,noIP
4,402,2,1,2,6,NA,HJCM,2,NA,NA,0,NA,0,0,1,NA,noIP
4,402,2,1,2,7,ORAL,HJCML,2,M,MORAL,6,NA,0,0,NA,NA,noIP
4,402,2,1,2,8,NUES,HJCLO,2,O,NOUES,5,NA,0,0,NA,NA,noIP
4,402,2,1,2,9,CEDER,HJCLA,2,A,CEDERA,9,NA,0,0,NA,NA,noIP
4,402,2,1,2,10,MIS,HJCLN,2,L,MILS,5,NA,0,0,NA,NA,noIP
4,403,3,1,1,1,NA,AMROA,3,MARA,MARA,5,60,0,0,NA,NA,IP
4,403,3,1,1,2,IDEE,OL,3,O,IODEE,6,50,0,0,NA,NA,IP
4,403,3,1,1,3,IDEE,LA,3,A,AIDEE,6,40,0,0,NA,NA,IP
4,403,3,1,1,4,NA,LP,3,NA,NA,0,0,0,0,1,NA,IP
4,403,3,1,1,5,NA,LPT,3,NA,NA,0,NA,0,0,1,NA,IP
4,403,3,1,1,6,DINAI,LPTE,3,T,DINAIT,4.1,60,2.5,2.9,NA,NA,IP
4,403,3,1,1,7,NA,LPEE,3,PELE,PELE,6,70,0,0,NA,NA,IP
4,403,3,1,1,8,PELE,T,3,T,PELTE,7,60,0,0,NA,NA,IP
4,403,3,1,1,9,PELE,Z,3,Z,PELEZ,16,60,4.2,0,NA,NA,IP
4,403,3,1,1,10,MARA,R,3,R,MARRA,6,50,10.2,0,NA,NA,IP
4,403,3,1,2,1,CEDE,EEOIR,3,R,CEDER,8,NA,0,0,NA,NA,noIP
4,403,3,1,2,2,NA,EEOIF,3,FOIE,FOIE,7,NA,0,0,NA,NA,noIP
4,403,3,1,2,3,FOIE,ER,3,R,FOIRE,8,NA,0,0,NA,NA,noIP
4,403,3,1,2,4,NA,EO,3,NA,NA,0,0,0,0,1,NA,noIP
4,403,3,1,2,5,MIS,EOV,3,E,MISE,5,NA,0,0,NA,NA,noIP
4,403,3,1,2,6,NA,OVL,3,VOL,VOL,6,NA,0,0,NA,NA,noIP
4,403,3,1,2,7,CEDE,X,3,X,CEDEX,17,NA,0,0,NA,NA,noIP
4,403,3,1,2,8,POSTAI,A,3,A,APOSTAI,9,NA,0,0,NA,NA,noIP
4,403,3,1,2,9,NA,V,3,NA,NA,0,0,0,0,1,NA,noIP
4,403,3,1,2,10,NA,VP,3,NA,NA,0,0,0,0,1,NA,noIP
4,404,4,2,1,1,NA,UFEBJ,1,FEU,FEU,6,60,0,0,NA,NA,IP
4,404,4,2,1,2,NA,BJG,1,NA,NA,0,NA,0,0,NA,NA,IP
4,404,4,2,1,3,NA,BJGO,1,BOG,BOG,6,60,0,0,NA,NA,IP
4,404,4,2,1,4,FEU,JC,1,J,FEUJ,14,60,0,0,NA,NA,IP
4,404,4,2,1,5,DORE,CE,1,E,DOREE,5,60,0,1,NA,NA,IP
4,404,4,2,1,6,DOREE,CS,1,S,DOREES,6,60,0,1,NA,NA,IP
4,404,4,2,1,7,DOREES,CA,1,A,ADOREES,7,70,0,1,NA,NA,IP
4,404,4,2,1,8,NA,CW,1,NA,NA,0,NA,0,0,NA,NA,IP
4,404,4,2,1,9,NA,CWU,1,NA,NA,0,NA,0,0,NA,NA,IP
4,404,4,2,1,10,VIDEE,CWUE,1,E,EVIDEE,4.3,50,0,5.7,NA,NA,IP
4,404,4,2,2,1,POSA,IGAUE,1,I,POSAI,7,NA,0,0,NA,NA,noIP
4,404,4,2,2,2,VOUS,GAUEI,1,E,VOUES,8,NA,0,0,NA,NA,noIP
4,404,4,2,2,3,VOUES,GAUIT,1,G,VOGUES,10,NA,0,0,NA,NA,noIP
4,404,4,2,2,4,VOUES,AUITT,1,T,VOUTES,9,NA,0,0,NA,NA,noIP
4,404,4,2,2,5,NA,AUITV,1,NA,NA,0,NA,0,0,1,NA,noIP
4,404,4,2,2,6,KAN,AUITVU,1,A,KANA,13,NA,0,0,NA,NA,noIP
4,404,4,2,2,7,KANA,UITVUH,1,T,KANAT,14,NA,0,0,NA,NA,noIP
4,404,4,2,2,8,NA,UIVUHO,1,NA,NA,0,NA,0,0,NA,NA,noIP
4,404,4,2,2,9,NA,UIVUHOE,1,HUI,HUI,6,NA,0,0,NA,NA,noIP
4,404,4,2,2,10,NA,VUOEE,1,NA,NA,0,0,0,0,1,NA,noIP
4,405,5,2,1,1,NA,USEMH,2,MUSE,MUSE,5,60,0,0,NA,NA,IP
4,405,5,2,1,2,NA,HN,2,NA,NA,0,NA,0,0,NA,NA,IP
4,405,5,2,1,3,MUSE,HNE,2,E,MUSEE,6,70,0,0,NA,NA,IP
4,405,5,2,1,4,NA,HNN,2,NA,NA,0,NA,0,0,NA,NA,IP
4,405,5,2,1,5,NA,HNNY,2,NA,NA,0,NA,0,0,NA,NA,IP
4,405,5,2,1,6,MUSEE,HNNYA,2,A,AMUSEE,7,70,0,0,NA,NA,IP
4,405,5,2,1,7,IDEE,HNNYV,2,V,VIDEE,6.5,80,0,2.5,NA,NA,IP
4,405,5,2,1,8,NA,HNNYN,2,NA,NA,0,NA,2.5,0,NA,NA,IP
4,405,5,2,1,9,NA,HNNYNU,2,NA,NA,0,NA,0,0,1,NA,IP
4,405,5,2,1,10,DORER,HNNYNUA,2,A,ADORER,5.6,70,3.2,1.4,NA,NA,IP
4,405,5,2,2,1,POSAI,AHVAT,2,T,POSAIT,8,NA,0,0,NA,NA,noIP
4,405,5,2,2,2,VOUES,AHVAN,2,A,AVOUES,9,NA,0,0,NA,NA,noIP
4,405,5,2,2,3,NA,HVANG,2,NA,NA,0,NA,0,0,NA,NA,noIP
4,405,5,2,2,4,NA,HVANGN,2,NA,NA,0,NA,0,0,NA,NA,noIP
4,405,5,2,2,5,ORAL,HVANGNM,2,M,MORAL,6,NA,0,0,NA,NA,noIP
4,405,5,2,2,6,MORAL,HVANGNA,2,A,AMORAL,7,NA,0,0,NA,NA,noIP
4,405,5,2,2,7,AMORAL,HVNGNAE,2,E,AMORALE,8,NA,0,0,NA,NA,noIP
4,405,5,2,2,8,NA,HVNGNAA,2,VAN,VAN,6,NA,0,0,NA,NA,noIP
4,405,5,2,2,9,NA,HGNAS,2,SANG,SANG,5,NA,0,0,NA,NA,noIP
4,405,5,2,2,10,NA,HM,2,NA,NA,0,0,0,0,1,NA,noIP
4,406,6,2,1,1,NA,EWRDO,3,DORE,DORE,5,20,0,0,NA,NA,IP
4,406,6,2,1,2,NA,WG,3,NA,NA,0,NA,0,0,NA,NA,IP
4,406,6,2,1,3,NA,WGU,3,NA,NA,0,NA,0,0,NA,NA,IP
4,406,6,2,1,4,NA,WGUK,3,NA,NA,0,0,0,0,1,NA,IP
4,406,6,2,1,5,DORE,WGUKR,3,R,DORER,6,40,1,0,NA,NA,IP
4,406,6,2,1,6,LIEU,WGUKE,3,E,LIEUE,5,40,1,0,NA,NA,IP
4,406,6,2,1,7,DORER,WGUKU,3,U,DOREUR,7,50,3.5,0,NA,NA,IP
4,406,6,2,1,8,DINA,WGKUI,3,I,DINAI,3.5,60,0,2.5,NA,NA,IP
4,406,6,2,1,9,NA,WGKUB,3,BUG,BUG,6,70,0,0,NA,NA,IP
4,406,6,2,1,10,NA,WKO,3,WOK,WOK,21,100,3.9,0,NA,NA,IP
4,406,6,2,2,1,NA,AENUP,3,PEAU,PEAU,6,NA,0,0,NA,NA,noIP
4,406,6,2,2,2,NA,ND,3,NA,NA,0,NA,0,0,NA,NA,noIP
4,406,6,2,2,3,NA,NDK,3,NA,NA,0,NA,0,0,NA,NA,noIP
4,406,6,2,2,4,NA,NDKN,3,NA,NA,0,NA,0,0,NA,NA,noIP
4,406,6,2,2,5,NA,NDKNA,3,KAN,KAN,12,NA,0,0,NA,NA,noIP
4,406,6,2,2,6,VOUTES,DNE,3,E,VOUTEES,10,NA,0,0,NA,NA,noIP
4,406,6,2,2,7,AVOUES,DNE,3,E,AVOUEES,10,NA,0,0,NA,NA,noIP
4,406,6,2,2,8,KAN,DNH,3,H,KHAN,16,NA,0,0,NA,NA,noIP
4,406,6,2,2,9,VOUES,DNE,3,E,VOUEES,9,NA,0,0,NA,NA,noIP
4,406,6,2,2,10,CEDE,DNE,3,E,CEDEE,8,NA,0,0,NA,NA,noIP
4,407,7,3,1,1,SORS,OINHN,1,I,SOIRS,3,60,0,2,NA,NA,IP
4,407,7,3,1,2,NA,ONHNR,1,NON,NON,3,60,0,0,NA,NA,IP
4,407,7,3,1,3,DINA,HRE,1,R,DINAR,3.5,40,0,2.5,NA,NA,IP
4,407,7,3,1,4,NA,HEM,1,NA,NA,0,0,0,0,1,NA,IP
4,407,7,3,1,5,SORS,HEMM,1,E,SORES,3,60,0,2,NA,NA,IP
4,407,7,3,1,6,NA,HMMK,1,NA,NA,0,NA,0.6,0,1,NA,IP
4,407,7,3,1,7,POIL,HMMKA,1,A,POILA,7,40,0.6,0,NA,NA,IP
4,407,7,3,1,8,NA,HMMKI,1,NA,NA,0,NA,3.4,0,NA,NA,IP
4,407,7,3,1,9,NA,HMMKIA,1,MAKI,MAKI,14,50,0,0,NA,NA,IP
4,407,7,3,1,10,DOINA,HMN,1,M,DOMINA,5.2,50,0,2.8,NA,NA,IP
4,407,7,3,2,1,NA,EQEUI,1,QUI,QUI,10,NA,0,0,NA,NA,noIP
4,407,7,3,2,2,NA,EEN,1,NEE,NEE,3,NA,0,0,NA,NA,noIP
4,407,7,3,2,3,POSTA,I,1,I,POSTAI,8,NA,0,0,NA,NA,noIP
4,407,7,3,2,4,POSA,I,1,I,POSAI,7,NA,0,0,NA,NA,noIP
4,407,7,3,2,5,QUI,O,1,O,QUOI,11,NA,0,0,NA,NA,noIP
4,407,7,3,2,6,HATE,U,1,U,HAUTE,8,NA,0,0,NA,NA,noIP
4,407,7,3,2,7,NEE,I,1,I,NIEE,4,NA,0,0,NA,NA,noIP
4,407,7,3,2,8,NUES,O,1,O,NOUES,5,NA,0,0,NA,NA,noIP
4,407,7,3,2,9,PIGE,A,1,A,PIGEA,8,NA,0,0,NA,NA,noIP
4,407,7,3,2,10,PIGE,R,1,R,PIGER,8,NA,0,0,NA,NA,noIP
4,408,8,3,1,1,NA,SLISE,2,LISSE,LISSE,5,60,2,0,NA,NA,IP
4,408,8,3,1,2,LISSE,E,2,E,LISSEE,6,60,0,0,NA,NA,IP
4,408,8,3,1,3,LISSE,E,2,E,LIESSE,6,40,2.5,0,NA,NA,IP
4,408,8,3,1,4,DINA,S,2,S,DINAS,6,40,0,0,NA,NA,IP
4,408,8,3,1,5,NA,M,2,NA,NA,0,NA,2,0,NA,NA,IP
4,408,8,3,1,6,SORES,MT,2,T,SORTES,5.4,10,0,0.6,NA,NA,IP
4,408,8,3,1,7,SORTES,MI,2,I,SORTIES,6.4,0,0,0.6,NA,NA,IP
4,408,8,3,1,8,DINA,MO,2,O,DOINA,6,30,0,0,NA,NA,IP
4,408,8,3,1,9,LISSE,MR,2,R,LISSER,6,30,0,0,NA,NA,IP
4,408,8,3,1,10,NA,MD,2,NA,NA,0,NA,2.8,0,NA,NA,IP
4,408,8,3,2,1,NA,THTAE,2,HATE,HATE,7,NA,0,0,NA,NA,noIP
4,408,8,3,2,2,POSA,TL,2,T,POSTA,7,NA,0,0,NA,NA,noIP
4,408,8,3,2,3,POSTA,LA,2,L,POSTAL,8,NA,0,0,NA,NA,noIP
4,408,8,3,2,4,CEDE,AE,2,E,CEDEE,8,NA,0,0,NA,NA,noIP
4,408,8,3,2,5,ORAL,AM,2,M,MORAL,6,NA,0,0,NA,NA,noIP
4,408,8,3,2,6,"NAGE",AM,2,A,"NAGEA",6,NA,0,0,NA,NA,noIP
4,408,8,3,2,7,NA,MA,2,NA,NA,0,NA,0,0,NA,NA,noIP
4,408,8,3,2,8,NUES,MAE,2,E,NUEES,5,NA,0,0,NA,NA,noIP
4,408,8,3,2,9,NA,MAM,2,NA,NA,0,NA,0,0,1,NA,noIP
4,408,8,3,2,10,NA,MAMM,2,NA,NA,0,0,0,0,1,NA,noIP
4,409,9,3,1,1,IDEE,"NAREX",3,R,RIDEE,6,50,0,0,NA,NA,IP
4,409,9,3,1,2,NA,"NAEXP",3,PANE,PANE,6,30,0,0,NA,NA,IP
4,409,9,3,1,3,NA,XM,3,NA,NA,0,NA,0,0,1,NA,IP
4,409,9,3,1,4,PANE,XML,3,L,PANEL,7,40,0,0,NA,NA,IP
4,409,9,3,1,5,NA,XMN,3,NA,NA,0,NA,0,0,1,NA,IP
4,409,9,3,1,6,NA,XMNO,3,MON,MON,4,60,0,0,NA,NA,IP
4,409,9,3,1,7,MON,XT,3,T,MONT,5,50,0,0,NA,NA,IP
4,409,9,3,1,8,POILA,XT,3,T,POILAT,4.6,50,0,3.4,NA,NA,IP
4,409,9,3,1,9,NA,XM,3,NA,NA,0,NA,0,0,NA,NA,IP
4,409,9,3,1,10,PANE,XMN,3,N,PANNE,7,70,0,0,NA,NA,IP
4,409,9,3,2,1,NA,EGUNA,3,NA,NA,0,0,0,0,1,NA,noIP
4,409,9,3,2,2,POSTA,EGUNAT,3,T,POSTAT,8,NA,0,0,NA,NA,noIP
4,409,9,3,2,3,POSTAL,EGUNAT,3,E,POSTALE,9,NA,0,0,NA,NA,noIP
4,409,9,3,2,4,POSA,GUNATI,3,T,POSAT,7,NA,0,0,NA,NA,noIP
4,409,9,3,2,5,QUI,GUNAIP,3,A,QUAI,11,NA,0,0,NA,NA,noIP
4,409,9,3,2,6,"NAGEA",GUNIPI,3,I,"NAGEAI",7,NA,0,0,NA,NA,noIP
4,409,9,3,2,7,"NAGEAI",GUNPIT,3,T,"NAGEAIT",8,NA,0,0,NA,NA,noIP
4,409,9,3,2,8,NA,GUNPIE,3,PIGE,PIGE,7,NA,0,0,NA,NA,noIP
4,409,9,3,2,9,QUI,UND,3,D,QUID,12,NA,0,0,NA,NA,noIP
4,409,9,3,2,10,POSTAT,UNE,3,N,POSTANT,9,NA,0,0,NA,NA,noIP
4,410,10,4,1,1,TENU,RTIOD,1,D,TENDU,6,50,3,0,NA,NA,IP
4,410,10,4,1,2,DINA,RTIOL,1,I,DINAI,3.5,50,3,2.5,NA,NA,IP
4,410,10,4,1,3,DINAI,RTOLQ,1,T,DINAIT,4.5,100,6,2.5,NA,NA,IP
4,410,10,4,1,4,NA,ROLQK,1,NA,NA,0,NA,0,0,1,NA,IP
4,410,10,4,1,5,TENU,ROLQKE,1,E,TENUE,5,100,0,0,NA,NA,IP
4,410,10,4,1,6,NA,ROLQKG,1,NA,NA,0,0,0,0,1,NA,IP
4,410,10,4,1,7,NA,ROLQKGF,1,NA,NA,0,0,0,0,1,NA,IP
4,410,10,4,1,8,TENDU,ROLQKGFE,1,E,ETENDU,7,100,4,0,NA,NA,IP
4,410,10,4,1,9,ETENDU,ROLQKGFE,1,E,ETENDUE,8,100,4,0,NA,NA,IP
4,410,10,4,1,10,ETENDUE,ROLQKGFW,1,R,RETENDUE,9,100,0,0,NA,NA,IP
4,410,10,4,2,1,CEDE,QASNN,1,S,CEDES,8,NA,0,0,NA,NA,noIP
4,410,10,4,2,2,NA,QANNU,1,NA,NA,0,NA,0,0,1,NA,noIP
4,410,10,4,2,3,NA,QANNUL,1,NA,NA,0,0,0,0,1,NA,noIP
4,410,10,4,2,4,VOUS,QANNULA,1,A,VOUAS,8,NA,0,0,NA,NA,noIP
4,410,10,4,2,5,CAP,QNNULAD,1,A,CAPA,8,NA,0,0,NA,NA,noIP
4,410,10,4,2,6,CAPA,QNNULDI,1,I,CAPAI,9,NA,0,0,NA,NA,noIP
4,410,10,4,2,7,NA,QNNULDK,1,NA,NA,0,NA,0,0,1,NA,noIP
4,410,10,4,2,8,CEDE,QNNULDKE,1,E,CEDEE,8,NA,0,0,NA,NA,noIP
4,410,10,4,2,9,CAPE,QNNULDKH,1,H,CHAPE,12,NA,0,0,NA,NA,noIP
4,410,10,4,2,10,NA,QNNULDKP,1,NA,NA,0,0,0,0,1,NA,noIP
4,411,11,4,1,1,POIL,UUNDA,2,U,POILU,4,70,0,3,NA,NA,IP
4,411,11,4,1,2,SORS,UNDAT,2,T,SORTS,5,50,3.2,0,NA,NA,IP
4,411,11,4,1,3,POIL,UNDAU,2,A,POILA,4,50,3.2,3,NA,NA,IP
4,411,11,4,1,4,NA,UNDUO,2,DUO,DUO,4,60,2.5,0,NA,NA,IP
4,411,11,4,1,5,NA,NUR,2,NA,NA,0,NA,0,0,1,NA,IP
4,411,11,4,1,6,NA,NURF,2,FUR,FUR,6,50,2.5,0,NA,NA,IP
4,411,11,4,1,7,NA,NA,2,NA,NA,0,NA,2.5,0,1,NA,IP
4,411,11,4,1,8,NA,"NAN",2,NA,NA,0,NA,0,0,1,NA,IP
4,411,11,4,1,9,NA,"NANK",2,KAN,KAN,12,50,0,0,NA,NA,IP
4,411,11,4,1,10,FUR,NO,2,O,FOUR,7,70,0,0,NA,NA,IP
4,411,11,4,2,1,"NAGE",EUEWU,2,U,NUAGE,6,NA,0,0,NA,NA,noIP
4,411,11,4,2,2,NA,EEWUZ,2,NA,NA,0,0,0,0,1,NA,noIP
4,411,11,4,2,3,NUES,EEWUZI,2,E,NUEES,5,NA,0,0,NA,NA,noIP
4,411,11,4,2,4,CEDE,EWUZIE,2,Z,CEDEZ,17,NA,0,0,NA,NA,noIP
4,411,11,4,2,5,CAP,EWUIEU,2,E,CAPE,8,NA,0,0,NA,NA,noIP
4,411,11,4,2,6,POSA,WUIEUO,2,I,POSAI,7,NA,0,0,NA,NA,noIP
4,411,11,4,2,7,NA,WUEUOU,2,NA,NA,0,0,0,0,1,NA,noIP
4,411,11,4,2,8,NA,WUEUOUH,2,HUE,HUE,6,NA,0,0,NA,NA,noIP
4,411,11,4,2,9,CEDERA,WUOUS,2,S,CEDERAS,10,NA,0,0,NA,NA,noIP
4,411,11,4,2,10,NA,WUOUU,2,NA,NA,0,NA,0,0,1,NA,noIP
4,412,12,4,1,1,IDEE,REGRD,3,R,RIDEE,6,70,0,0,NA,NA,IP
4,412,12,4,1,2,POILU,EGRDU,3,E,POILUE,4.3,40,0,3.7,NA,NA,IP
4,412,12,4,1,3,POILUE,GRDUS,3,S,POILUES,5.3,30,0,3.7,NA,NA,IP
4,412,12,4,1,4,SORTS,GRDUI,3,I,SORTIS,3.5,20,0,2.5,NA,NA,IP
4,412,12,4,1,5,IDEE,GRDUA,3,A,AIDEE,6,20,0,0,NA,NA,IP
4,412,12,4,1,6,SORTIS,GRDUA,3,A,SORTAIS,4.5,10,0,2.5,NA,NA,IP
4,412,12,4,1,7,SORTIS,GRDUE,3,E,SORTIES,4.5,20,0,2.5,NA,NA,IP
4,412,12,4,1,8,ETENDU,GRDUE,3,D,DETENDU,5,10,0,4,NA,NA,IP
4,412,12,4,1,9,DETENDU,GRUEE,3,E,DETENDUE,6,100,0,4,NA,NA,IP
4,412,12,4,1,10,NA,GRUEL,3,GRUE,GRUE,5,50,0,0,NA,NA,IP
4,412,12,4,2,1,ORAL,EKLCD,3,E,ORALE,5,NA,0,0,NA,NA,noIP
4,412,12,4,2,2,NA,KLCDL,3,NA,NA,0,0,0,0,1,NA,noIP
4,412,12,4,2,3,NA,KLCDLP,3,NA,NA,0,NA,0,0,NA,NA,noIP
4,412,12,4,2,4,NA,KLCDLPA,3,CAP,CAP,7,NA,0,0,NA,NA,noIP
4,412,12,4,2,5,CEDE,KLDLR,3,R,CEDER,8,NA,0,0,NA,NA,noIP
4,412,12,4,2,6,CEDER,KLDLA,3,A,CEDERA,9,NA,0,0,NA,NA,noIP
4,412,12,4,2,7,CEDES,KLDLE,3,E,CEDEES,9,NA,0,0,NA,NA,noIP
4,412,12,4,2,8,CAPE,KLDLC,3,L,CLAPE,9,NA,0,0,NA,NA,noIP
4,412,12,4,2,9,CAP,KDLCU,3,L,CLAP,8,NA,0,0,NA,NA,noIP
4,412,12,4,2,10,NA,KDCUN,3,NA,NA,0,0,0,0,1,NA,noIP
4,413,13,5,1,1,DINA,RYRLN,1,R,DINAR,3.5,70,3,2.5,NA,NA,IP
4,413,13,5,1,2,POILE,YRLNB,1,R,POILER,7.6,60,2,0.4,NA,NA,IP
4,413,13,5,1,3,POILE,YLNBS,1,S,POILES,7.6,40,0,0.4,NA,NA,IP
4,413,13,5,1,4,NA,YLNBE,1,NA,NA,0,0,0,0,1,NA,IP
4,413,13,5,1,5,NA,YLNBEN,1,NA,NA,0,NA,3,0,1,NA,IP
4,413,13,5,1,6,POILER,YLNBENA,1,A,POILERA,8.6,60,4.2,0.4,NA,NA,IP
4,413,13,5,1,7,POILERAI,YLNBENT,1,T,POILERAIT,9.8,30,0,1.2,NA,NA,IP
4,413,13,5,1,8,LIEU,YLNBENE,1,E,LIEUE,3,50,0,2,NA,NA,IP
4,413,13,5,1,9,MINERA,YLNBNEI,1,I,MINERAI,4.5,70,0,3.5,NA,NA,IP
4,413,13,5,1,10,POIL,YLNBNEU,1,U,POILU,7,100,4.2,0,NA,NA,IP
4,413,13,5,2,1,"NAGE",NESAD,1,A,"NAGEA",6,NA,0,0,NA,NA,noIP
4,413,13,5,2,2,BATI,NESDO,1,E,BATIE,7,NA,0,0,NA,NA,noIP
4,413,13,5,2,3,BATI,NSDOV,1,S,BATIS,7,NA,0,0,NA,NA,noIP
4,413,13,5,2,4,VOUS,NDOVE,1,E,VOUES,8,NA,0,0,NA,NA,noIP
4,413,13,5,2,5,NA,NDOVG,1,NA,NA,0,0,0,0,1,NA,noIP
4,413,13,5,2,6,NA,NDOVGD,1,NA,NA,0,NA,0,0,1,NA,noIP
4,413,13,5,2,7,NA,NDOVGDN,1,DON,DON,4,NA,0,0,NA,NA,noIP
4,413,13,5,2,8,MORAL,VGDNE,1,E,MORALE,7,NA,0,0,NA,NA,noIP
4,413,13,5,2,9,LOUP,VGDNA,1,A,LOUPA,7,NA,0,0,NA,NA,noIP
4,413,13,5,2,10,CEDEE,VGDNS,1,S,CEDEES,9,NA,0,0,NA,NA,noIP
4,414,14,5,1,1,POIL,HEDEL,2,E,POILE,4,40,2.5,3,NA,NA,IP
4,414,14,5,1,2,TENU,HDELL,2,E,TENUE,3,50,0.4,2,NA,NA,IP
4,414,14,5,1,3,NA,HDLLI,2,NA,NA,0,NA,0.4,0,1,NA,IP
4,414,14,5,1,4,MINE,HDLLIE,2,E,MINEE,3.5,50,0,2.5,NA,NA,IP
4,414,14,5,1,5,NA,HDLLIG,2,NA,NA,0,NA,0.4,0,NA,NA,IP
4,414,14,5,1,6,POILERA,HDLLIGR,2,I,POILERAI,5.8,80,0.4,4.2,NA,NA,IP
4,414,14,5,1,7,NA,HDLLGRI,2,NA,NA,0,NA,1.2,0,1,NA,IP
4,414,14,5,1,8,NA,HDLLGRIN,2,NA,NA,0,NA,0,0,1,NA,IP
4,414,14,5,1,9,NA,HDLLGRINY,2,NA,NA,0,0,0,0,1,NA,IP
4,414,14,5,1,10,POILERAI,HDLLGRINYS,2,S,POILERAIS,6.8,100,0,4.2,NA,NA,IP
4,414,14,5,2,1,CEDE,OEOED,2,E,CEDEE,8,NA,0,0,NA,NA,noIP
4,414,14,5,2,2,"NAGE",OOEDF,2,E,"NAGEE",6,NA,0,0,NA,NA,noIP
4,414,14,5,2,3,NA,OODFP,2,NA,NA,0,0,0,0,1,NA,noIP
4,414,14,5,2,4,ORAL,OODFPE,2,E,ORALE,5,NA,0,0,NA,NA,noIP
4,414,14,5,2,5,VOUES,OODFPE,2,E,VOUEES,9,NA,0,0,NA,NA,noIP
4,414,14,5,2,6,NA,OODFPL,2,NA,NA,0,0,0,0,1,NA,noIP
4,414,14,5,2,7,NUES,OODFPLE,2,E,NUEES,5,NA,0,0,NA,NA,noIP
4,414,14,5,2,8,NA,OODFPLU,2,LOUP,LOUP,6,NA,0,0,NA,NA,noIP
4,414,14,5,2,9,LOUP,ODFE,2,E,LOUPE,7,NA,0,0,NA,NA,noIP
4,414,14,5,2,10,LOUPE,ODFE,2,E,LOUPEE,8,NA,0,0,NA,NA,noIP
4,415,15,5,1,1,NA,IMNWE,3,MINE,MINE,5,50,0,0,NA,NA,IP
4,415,15,5,1,2,NA,WK,3,NA,NA,0,NA,0,0,NA,NA,IP
4,415,15,5,1,3,MINE,WKR,3,R,MINER,6,50,0,0,NA,NA,IP
4,415,15,5,1,4,NA,WKE,3,NA,NA,0,0,2.5,0,1,NA,IP
4,415,15,5,1,5,POILE,WKER,3,E,POILEE,4.6,50,0,3.4,NA,NA,IP
4,415,15,5,1,6,NA,WKRW,3,NA,NA,0,NA,0,0,1,NA,IP
4,415,15,5,1,7,NA,WKRWH,3,NA,NA,0,NA,0,0,NA,NA,IP
4,415,15,5,1,8,MINER,WKRWHA,3,A,MINERA,7,50,2,0,NA,NA,IP
4,415,15,5,1,9,NA,WKRWHB,3,NA,NA,0,NA,3.5,0,1,NA,IP
4,415,15,5,1,10,NA,WKRWHBP,3,NA,NA,0,NA,0,0,NA,NA,IP
4,415,15,5,2,1,NA,ITSBA,3,BATI,BATI,6,NA,0,0,NA,NA,noIP
4,415,15,5,2,2,BATIE,SC,3,S,BATIES,8,NA,0,0,NA,NA,noIP
4,415,15,5,2,3,NA,CB,3,NA,NA,0,NA,0,0,NA,NA,noIP
4,415,15,5,2,4,NA,CBI,3,BIC,BIC,7,NA,0,0,NA,NA,noIP
4,415,15,5,2,5,NUES,O,3,O,NOUES,5,NA,0,0,NA,NA,noIP
4,415,15,5,2,6,POSA,I,3,I,POSAI,7,NA,0,0,NA,NA,noIP
4,415,15,5,2,7,ORAL,M,3,M,MORAL,6,NA,0,0,NA,NA,noIP
4,415,15,5,2,8,NA,N,3,NA,NA,0,NA,0,0,NA,NA,noIP
4,415,15,5,2,9,DON,NA,3,A,DONA,5,NA,0,0,1,NA,noIP
4,415,15,5,2,10,POSAI,NT,3,T,POSAIT,8,NA,0,0,NA,NA,noIP
5,501,1,1,1,1,NA,RAPUL,1,PARU,PARU,6,50,3.5,0,NA,NA,IP
5,501,1,1,1,2,NA,LH,1,NA,NA,0,NA,0,0,NA,NA,IP
5,501,1,1,1,3,TENU,LHD,1,D,TENDU,4,80,0,2,NA,NA,IP
5,501,1,1,1,4,NA,LHG,1,NA,NA,0,0,1.6,0,1,NA,IP
5,501,1,1,1,5,TENDU,LHGE,1,E,ETENDU,5,80,3,2,NA,NA,IP
5,501,1,1,1,6,NA,LHGA,1,NA,NA,0,NA,0,0,NA,NA,IP
5,501,1,1,1,7,NA,LHGAL,1,NA,NA,0,NA,0,0,NA,NA,IP
5,501,1,1,1,8,ETENDU,LHGALD,1,D,DETENDU,7,50,0,2,NA,NA,IP
5,501,1,1,1,9,NA,LHGALP,1,NA,NA,0,NA,0,0,NA,NA,IP
5,501,1,1,1,10,NA,LHGALPT,1,NA,NA,0,NA,0,0,NA,NA,IP
5,501,1,1,2,1,"NAGE",TAEUO,1,U,NUAGE,6,NA,0,0,NA,NA,noIP
5,501,1,1,2,2,NA,TAEOB,1,NA,NA,0,NA,0,0,1,NA,noIP
5,501,1,1,2,3,NA,TAEOBI,1,BITE,BITE,6,NA,0,0,NA,NA,noIP
5,501,1,1,2,4,ORACLE,AOS,1,S,ORACLES,9,NA,0,0,NA,NA,noIP
5,501,1,1,2,5,IDEE,AOA,1,A,AIDEE,6,NA,0,0,NA,NA,noIP
5,501,1,1,2,6,BITE,OAE,1,O,BOITE,7,NA,0,0,NA,NA,noIP
5,501,1,1,2,7,BOITE,AEN,1,N,BONITE,8,NA,0,0,NA,NA,noIP
5,501,1,1,2,8,NA,AEF,1,NA,NA,0,0,0,0,1,NA,noIP
5,501,1,1,2,9,LIEU,AEFA,1,E,LIEUE,5,NA,0,0,NA,NA,noIP
5,501,1,1,2,10,RITE,AFAN,1,F,FRITE,8,NA,0,0,NA,NA,noIP
5,502,2,1,1,1,CEDE,NLEIE,2,E,CEDEE,4.5,30,0,3.5,NA,NA,IP
5,502,2,1,1,2,POIL,NLIEA,2,A,POILA,7,30,2,0,NA,NA,IP
5,502,2,1,1,3,POILA,NLIEQ,2,I,POILAI,8,20,0,0,NA,NA,IP
5,502,2,1,1,4,NA,NLEQI,2,QIN,QIN,10,40,0,0,NA,NA,IP
5,502,2,1,1,5,QIN,LES,2,S,QINS,11,10,0,0,NA,NA,IP
5,502,2,1,1,6,FAN,LEE,2,E,FANE,3.4,20,3.5,3.6,NA,NA,IP
5,502,2,1,1,7,POIL,LEL,2,E,POILE,7,30,0,0,NA,NA,IP
5,502,2,1,1,8,POILE,LLR,2,R,POILER,8,50,0,0,NA,NA,IP
5,502,2,1,1,9,POILER,LLA,2,A,POILERA,9,50,0,0,NA,NA,IP
5,502,2,1,1,10,NA,LLO,2,LOL,LOL,3,60,0,0,NA,NA,IP
5,502,2,1,2,1,LIEU,XCQII,2,X,LIEUX,14,NA,0,0,NA,NA,noIP
5,502,2,1,2,2,ORALE,CQIIA,2,C,ORACLE,8,NA,0,0,NA,NA,noIP
5,502,2,1,2,3,POSA,QIIAE,2,I,POSAI,7,NA,0,0,NA,NA,noIP
5,502,2,1,2,4,"NAGE",QIAEI,2,E,"NAGEE",6,NA,0,0,NA,NA,noIP
5,502,2,1,2,5,NA,QIAIM,2,NA,NA,0,0,0,0,1,NA,noIP
5,502,2,1,2,6,NA,QIAIML,2,LIAI,LIAI,4,NA,0,0,NA,NA,noIP
5,502,2,1,2,7,ORALE,QML,2,M,MORALE,7,NA,0,0,NA,NA,noIP
5,502,2,1,2,8,BONITE,QLS,2,S,BONITES,9,NA,0,0,NA,NA,noIP
5,502,2,1,2,9,NA,QLG,2,NA,NA,0,NA,0,0,1,NA,noIP
5,502,2,1,2,10,AUX,QLGF,2,F,FAUX,16,NA,0,0,NA,NA,noIP
5,503,3,1,1,1,TENU,LFNEK,3,E,TENUE,5,50,0,0,NA,NA,IP
5,503,3,1,1,2,SORS,LFNKT,3,T,SORTS,3,40,0,2,NA,NA,IP
5,503,3,1,1,3,NA,LFNKA,3,FAN,FAN,6,60,2,0,NA,NA,IP
5,503,3,1,1,4,TENDU,LKE,3,E,TENDUE,5.4,40,0,1.6,NA,NA,IP
5,503,3,1,1,5,PARU,LKT,3,T,PARUT,4,30,2,3,NA,NA,IP
5,503,3,1,1,6,POILAI,LKS,3,S,POILAIS,5.5,50,3.6,3.5,NA,NA,IP
5,503,3,1,1,7,FAN,LKD,3,L,FLAN,7,60,0,0,NA,NA,IP
5,503,3,1,1,8,NA,KDV,3,NA,NA,0,NA,2,0,1,NA,IP
5,503,3,1,1,9,NA,KDVI,3,KID,KID,13,60,0,0,NA,NA,IP
5,503,3,1,1,10,NA,VI,3,NA,NA,0,NA,0,0,1,NA,IP
5,503,3,1,2,1,ORAL,ITEEE,3,E,ORALE,5,NA,0,0,NA,NA,noIP
5,503,3,1,2,2,NA,ITEER,3,RITE,RITE,4,NA,0,0,NA,NA,noIP
5,503,3,1,2,3,BITE,EB,3,E,BITEE,7,NA,0,0,NA,NA,noIP
5,503,3,1,2,4,NA,BN,3,NA,NA,0,0,0,0,1,NA,noIP
5,503,3,1,2,5,NA,BNX,3,NA,NA,0,NA,0,0,1,NA,noIP
5,503,3,1,2,6,NA,BNXA,3,NA,NA,0,NA,0,0,1,NA,noIP
5,503,3,1,2,7,NA,BNXAU,3,AUX,AUX,12,NA,0,0,NA,NA,noIP
5,503,3,1,2,8,NA,BNW,3,NA,NA,0,0,0,0,1,NA,noIP
5,503,3,1,2,9,LIAI,BNWE,3,E,ELIAI,5,NA,0,0,NA,NA,noIP
5,503,3,1,2,10,FRITE,BNWE,3,E,FRITEE,9,NA,0,0,NA,NA,noIP
5,504,4,2,1,1,NA,ANRME,1,RAME,RAME,5,30,0,0,NA,NA,IP
5,504,4,2,1,2,SORS,NI,1,I,SOIRS,3,40,3.5,2,NA,NA,IP
5,504,4,2,1,3,NA,NR,1,NA,NA,0,0,3.5,0,1,NA,IP
5,504,4,2,1,4,DINA,NRF,1,R,DINAR,6,20,0,0,NA,NA,IP
5,504,4,2,1,5,NA,NFN,1,NA,NA,0,0,0,0,1,NA,IP
5,504,4,2,1,6,AIDES,NFNV,1,V,AVIDES,5.2,20,7,4.8,NA,NA,IP
5,504,4,2,1,7,CEDERAI,NFNT,1,T,CEDERAIT,8.1,20,1.5,2.9,NA,NA,IP
5,504,4,2,1,8,NA,NFNO,1,FON,FON,6,60,3.6,0,NA,NA,IP
5,504,4,2,1,9,NA,NN,1,NA,NA,0,0,3.6,0,1,NA,IP
5,504,4,2,1,10,FONDE,NNU,1,U,FONDUE,7.9,50,1.5,2.1,NA,NA,IP
5,504,4,2,2,1,"NAGE",EELET,1,E,"NAGEE",6,NA,0,0,NA,NA,noIP
5,504,4,2,2,2,NA,ELETT,1,TETE,TETE,4,NA,0,0,NA,NA,noIP
5,504,4,2,2,3,LIEU,LX,1,X,LIEUX,14,NA,0,0,NA,NA,noIP
5,504,4,2,2,4,"NAGER",LA,1,A,"NAGERA",7,NA,0,0,NA,NA,noIP
5,504,4,2,2,5,NA,LL,1,NA,NA,0,NA,0,0,NA,NA,noIP
5,504,4,2,2,6,POSAIT,LLT,1,T,POSTAIT,9,NA,0,0,NA,NA,noIP
5,504,4,2,2,7,"NAGER",LLU,1,U,"NAGEUR",7,NA,0,0,NA,NA,noIP
5,504,4,2,2,8,TETER,LLE,1,E,ETETER,6,NA,0,0,NA,NA,noIP
5,504,4,2,2,9,NA,LLR,1,NA,NA,0,0,0,0,1,NA,noIP
5,504,4,2,2,10,FOC,LLRE,1,R,FROC,9,NA,0,0,NA,NA,noIP
5,505,5,2,1,1,NA,DESAJ,2,NA,NA,0,NA,0,0,NA,NA,IP
5,505,5,2,1,2,NA,DESAJD,2,NA,NA,0,NA,2,0,1,NA,IP
5,505,5,2,1,3,POIL,DESAJDN,2,S,POILS,7,70,0,0,NA,NA,IP
5,505,5,2,1,4,NA,DEAJDNI,2,AIDE,AIDE,5,80,2,0,NA,NA,IP
5,505,5,2,1,5,AIDE,JDNS,2,S,AIDES,6,80,2,0,NA,NA,IP
5,505,5,2,1,6,CEDERA,JDNI,2,I,CEDERAI,4.5,90,4.8,5.5,NA,NA,IP
5,505,5,2,1,7,NA,JDNE,2,NA,NA,0,0,0.9,0,1,NA,IP
5,505,5,2,1,8,FON,JDNED,2,D,FOND,4.4,80,0,3.6,NA,NA,IP
5,505,5,2,1,9,FOND,JNEDY,2,E,FONDE,5.4,50,4.8,3.6,NA,NA,IP
5,505,5,2,1,10,NA,JNDYM,2,NA,NA,0,NA,2.1,0,NA,NA,IP
5,505,5,2,2,1,ORAL,FHRCE,2,E,ORALE,5,NA,0,0,NA,NA,noIP
5,505,5,2,2,2,"NAGE",FHRCH,2,R,"NAGER",6,NA,0,0,NA,NA,noIP
5,505,5,2,2,3,NA,FHCHL,2,NA,NA,0,0,0,0,1,NA,noIP
5,505,5,2,2,4,NA,FHCHLZ,2,NA,NA,0,NA,0,0,1,NA,noIP
5,505,5,2,2,5,NA,FHCHLZU,2,NA,NA,0,NA,0,0,NA,NA,noIP
5,505,5,2,2,6,NA,FHCHLZUM,2,NA,NA,0,0,0,0,1,NA,noIP
5,505,5,2,2,7,NA,FHCHLZUMT,2,MUT,MUT,4,NA,0,0,NA,NA,noIP
5,505,5,2,2,8,IDEE,FHCHLZT,2,L,IDEEL,6,NA,0,0,1,NA,noIP
5,505,5,2,2,9,NA,FHCHZTO,2,FOC,FOC,8,NA,0,0,NA,NA,noIP
5,505,5,2,2,10,NA,HHZTM,2,NA,NA,0,0,0,0,1,NA,noIP
5,506,6,2,1,1,TENU,RENLE,3,E,TENUE,5,50,0,0,NA,NA,IP
5,506,6,2,1,2,CEDE,RNLEA,3,R,CEDER,4.5,100,0,3.5,NA,NA,IP
5,506,6,2,1,3,CEDER,NLEAT,3,A,CEDERA,5.5,100,0,3.5,NA,NA,IP
5,506,6,2,1,4,SORS,NLETM,3,T,SORTS,3,80,0,2,NA,NA,IP
5,506,6,2,1,5,SORTS,NLEME,3,E,SORTES,4,70,0,2,NA,NA,IP
5,506,6,2,1,6,CEDE,NLMER,3,E,CEDEE,4.5,70,2,3.5,NA,NA,IP
5,506,6,2,1,7,RAME,NLMRK,3,R,RAMER,4.5,80,2,1.5,NA,NA,IP
5,506,6,2,1,8,NA,NLMKN,3,NA,NA,0,NA,0,0,1,NA,IP
5,506,6,2,1,9,AIDES,NLMKNL,3,L,LAIDES,2.2,90,0,4.8,NA,NA,IP
5,506,6,2,1,10,RAME,NMKNLN,3,N,RAMEN,4.5,100,0,1.5,NA,NA,IP
5,506,6,2,2,1,NUES,REWIR,3,E,NUEES,5,NA,0,0,NA,NA,noIP
5,506,6,2,2,2,POSA,RWIRT,3,T,POSAT,7,NA,0,0,NA,NA,noIP
5,506,6,2,2,3,POSAT,RWIRA,3,I,POSAIT,8,NA,0,0,NA,NA,noIP
5,506,6,2,2,4,"NAGE",RWRAO,3,A,"NAGEA",6,NA,0,0,NA,NA,noIP
5,506,6,2,2,5,TETE,RWROE,3,R,TETER,5,NA,0,0,NA,NA,noIP
5,506,6,2,2,6,TETE,WROEW,3,E,TETEE,5,NA,0,0,NA,NA,noIP
5,506,6,2,2,7,ORAL,WROWM,3,M,MORAL,6,NA,0,0,NA,NA,noIP
5,506,6,2,2,8,NA,WROWO,3,NA,NA,0,NA,0,0,1,NA,noIP
5,506,6,2,2,9,NA,WROWOR,3,NA,NA,0,0,0,0,1,NA,noIP
5,506,6,2,2,10,TETER,WROWORN,3,N,TENTER,6,NA,0,0,NA,NA,noIP
5,507,7,3,1,1,NA,IXIOS,1,SOI,SOI,3,50,0,0,NA,NA,IP
5,507,7,3,1,2,CEDE,XIE,1,X,CEDEX,17,30,5,0,NA,NA,IP
5,507,7,3,1,3,NA,IEA,1,NA,NA,0,0,0,0,1,NA,IP
5,507,7,3,1,4,DINA,IEAS,1,I,DINAI,6,30,3.5,0,NA,NA,IP
5,507,7,3,1,5,NA,EASG,1,SAGE,SAGE,5,40,3.5,0,NA,NA,IP
5,507,7,3,1,6,DINAI,S,1,S,DINAIS,7,20,0,0,NA,NA,IP
5,507,7,3,1,7,NA,Y,1,NA,NA,0,NA,1.5,0,NA,NA,IP
5,507,7,3,1,8,NA,YC,1,NA,NA,0,NA,0,0,NA,NA,IP
5,507,7,3,1,9,SAGE,YCS,1,S,SAGES,6,30,0,0,NA,NA,IP
5,507,7,3,1,10,NA,YCO,1,NA,NA,0,NA,0,0,NA,NA,IP
5,507,7,3,2,1,NA,TRLDI,1,TRI,TRI,3,NA,0,0,NA,NA,noIP
5,507,7,3,2,2,NA,LDC,1,NA,NA,0,0,0,0,1,NA,noIP
5,507,7,3,2,3,NUES,LDCO,1,O,NOUES,5,NA,0,0,NA,NA,noIP
5,507,7,3,2,4,NA,LDCG,1,NA,NA,0,NA,0,0,1,NA,noIP
5,507,7,3,2,5,NA,LDCGG,1,NA,NA,0,NA,0,0,1,NA,noIP
5,507,7,3,2,6,"NAGE",LDCGGR,1,R,"NAGER",6,NA,0,0,NA,NA,noIP
5,507,7,3,2,7,POSAI,LDCGGS,1,S,POSAIS,8,NA,0,0,NA,NA,noIP
5,507,7,3,2,8,TRIPA,LDCGGI,1,I,TRIPAI,8,NA,0,0,NA,NA,noIP
5,507,7,3,2,9,IDEE,LDCGGV,1,V,VIDEE,9,NA,0,0,NA,NA,noIP
5,507,7,3,2,10,TRI,LDCGGO,1,O,TRIO,4,NA,0,0,NA,NA,noIP
5,508,8,3,1,1,NA,LODOO,2,NA,NA,0,NA,0,0,NA,NA,IP
5,508,8,3,1,2,CEDE,LODOOE,2,E,CEDEE,4.5,50,0,3.5,NA,NA,IP
5,508,8,3,1,3,NA,LODOOI,2,LOI,LOI,3,60,0,0,NA,NA,IP
5,508,8,3,1,4,BIS,DOOB,2,O,BOIS,4,50,0,2,NA,NA,IP
5,508,8,3,1,5,CEDEE,DOBS,2,S,CEDEES,5.5,0,3,3.5,NA,NA,IP
5,508,8,3,1,6,NA,DOBV,2,NA,NA,0,NA,0,0,1,NA,IP
5,508,8,3,1,7,NA,DOBVI,2,BIO,BIO,5,50,0,0,NA,NA,IP
5,508,8,3,1,8,LOI,DVN,2,N,LOIN,4,50,0.5,0,NA,NA,IP
5,508,8,3,1,9,JOIE,DVL,2,L,JOLIE,2.1,70,0,9.9,NA,NA,IP
5,508,8,3,1,10,NA,DVE,2,NA,NA,0,NA,0,0,1,NA,IP
5,508,8,3,2,1,NA,DIMII,2,MIDI,MIDI,6,NA,0,0,NA,NA,noIP
5,508,8,3,2,2,POSA,IT,2,I,POSAI,7,NA,0,0,NA,NA,noIP
5,508,8,3,2,3,POSAI,TL,2,T,POSAIT,8,NA,0,0,NA,NA,noIP
5,508,8,3,2,4,TRI,LP,2,P,TRIP,6,NA,0,0,NA,NA,noIP
5,508,8,3,2,5,TRI,LA,2,A,TRIA,4,NA,0,0,NA,NA,noIP
5,508,8,3,2,6,TRIA,LY,2,L,TRIAL,5,NA,0,0,NA,NA,noIP
5,508,8,3,2,7,TRIA,YI,2,I,TRIAI,5,NA,0,0,NA,NA,noIP
5,508,8,3,2,8,"NAGE",YA,2,A,"NAGEA",6,NA,0,0,NA,NA,noIP
5,508,8,3,2,9,"NAGEA",YR,2,R,"NAGERA",7,NA,0,0,NA,NA,noIP
5,508,8,3,2,10,NOUES,YE,2,E,NOUEES,6,NA,0,0,NA,NA,noIP
5,509,9,3,1,1,NA,IZRSB,3,BIS,BIS,5,40,0,0,NA,NA,IP
5,509,9,3,1,2,SOI,ZRE,3,R,SOIR,2.5,50,0,1.5,NA,NA,IP
5,509,9,3,1,3,NA,ZEI,3,NA,NA,0,NA,0,0,NA,NA,IP
5,509,9,3,1,4,CEDE,ZEIO,3,Z,CEDEZ,13.5,90,2,3.5,NA,NA,IP
5,509,9,3,1,5,POIL,EIOU,3,U,POILU,4,80,0,3,NA,NA,IP
5,509,9,3,1,6,NA,EIOJ,3,JOIE,JOIE,11,90,0,0,NA,NA,IP
5,509,9,3,1,7,SOI,L,3,L,SOLI,2.5,60,0,1.5,NA,NA,IP
5,509,9,3,1,8,BOIS,A,3,A,ABOIS,6.5,60,0,0.5,NA,NA,IP
5,509,9,3,1,9,NA,I,3,NA,NA,0,NA,9.9,0,NA,NA,IP
5,509,9,3,1,10,NA,IG,3,NA,NA,0,NA,0,0,NA,NA,IP
5,509,9,3,2,1,NA,AEIBO,3,OIE,OIE,3,NA,0,0,NA,NA,noIP
5,509,9,3,2,2,NA,ABI,3,NA,NA,0,NA,0,0,NA,NA,noIP
5,509,9,3,2,3,NA,ABIK,3,NA,NA,0,NA,0,0,1,NA,noIP
5,509,9,3,2,4,TRIP,ABIKA,3,A,TRIPA,7,NA,0,0,NA,NA,noIP
5,509,9,3,2,5,NA,BIKAZ,3,NA,NA,0,0,0,0,1,NA,noIP
5,509,9,3,2,6,NA,BIKAZA,3,NA,NA,0,NA,0,0,NA,NA,noIP
5,509,9,3,2,7,"NAGE",BIKAZAB,3,Z,"NAGEZ",15,NA,0,0,NA,NA,noIP
5,509,9,3,2,8,NA,BIKAABZ,3,NA,NA,0,NA,0,0,NA,NA,noIP
5,509,9,3,2,9,NA,BIKAABZG,3,NA,NA,0,NA,0,0,NA,NA,noIP
5,509,9,3,2,10,NA,BIKAABZGA,3,NA,NA,0,NA,0,0,1,NA,noIP
5,510,10,4,1,1,CEDE,IINSA,1,S,CEDES,8,30,0,0,NA,NA,IP
5,510,10,4,1,2,DINA,IINAV,1,I,DINAI,6,50,0,0,NA,NA,IP
5,510,10,4,1,3,EDITE,INAVM,1,M,MEDITE,3.8,50,0,4.2,NA,NA,IP
5,510,10,4,1,4,NA,INAVO,1,VAIN,VAIN,7,70,1,0,NA,NA,IP
5,510,10,4,1,5,NA,OF,1,NA,NA,0,NA,0,0,1,NA,IP
5,510,10,4,1,6,NA,OFY,1,NA,NA,0,NA,3,0,NA,NA,IP
5,510,10,4,1,7,VAIN,OFYS,1,S,VAINS,8,20,0,0,NA,NA,IP
5,510,10,4,1,8,NA,OFYL,1,NA,NA,0,NA,0,0,NA,NA,IP
5,510,10,4,1,9,NA,OFYLS,1,LYS,LYS,12,60,7.6,0,NA,NA,IP
5,510,10,4,1,10,VOUA,OFT,1,T,VOUAT,5.9,30,0,2.1,NA,NA,IP
5,510,10,4,2,1,POSA,STIBE,1,S,POSAS,7,NA,0,0,NA,NA,noIP
5,510,10,4,2,2,NUES,TIBEO,1,E,NUEES,5,NA,0,0,NA,NA,noIP
5,510,10,4,2,3,POSTAS,TIBOE,1,I,POSTAIS,9,NA,0,0,NA,NA,noIP
5,510,10,4,2,4,"NAGE",TBOEK,1,E,"NAGEE",6,NA,0,0,NA,NA,noIP
5,510,10,4,2,5,POSA,TBOKO,1,T,POSAT,7,NA,0,0,NA,NA,noIP
5,510,10,4,2,6,COL,BOKOO,1,O,COLO,6,NA,0,0,NA,NA,noIP
5,510,10,4,2,7,NA,BKOOT,1,KOT,KOT,12,NA,0,0,NA,NA,noIP
5,510,10,4,2,8,NA,BOL,1,BOL,BOL,5,NA,0,0,NA,NA,noIP
5,510,10,4,2,9,NA,U,1,NA,NA,0,NA,0,0,NA,NA,noIP
5,510,10,4,2,10,KOT,US,1,S,KOTS,13,NA,0,0,NA,NA,noIP
5,511,11,4,1,1,SORS,NETAI,2,T,SORTS,5,100,0,0,NA,NA,IP
5,511,11,4,1,2,SORTS,NEAIU,2,I,SORTIS,6,100,0,0,NA,NA,IP
5,511,11,4,1,3,SORTIS,NEAUM,2,A,SORTAIS,7,30,0,0,NA,NA,IP
5,511,11,4,1,4,POIL,NEUMU,2,U,POILU,7,30,0,0,NA,NA,IP
5,511,11,4,1,5,POILU,NEMUN,2,E,POILUE,8,30,0,0,NA,NA,IP
5,511,11,4,1,6,NA,NMUNV,2,NA,NA,0,NA,0,0,1,NA,IP
5,511,11,4,1,7,NA,NMUNVA,2,NA,NA,0,NA,0,0,1,NA,IP
5,511,11,4,1,8,NA,NMUNVAO,2,VOUA,VOUA,7,30,0,0,NA,NA,IP
5,511,11,4,1,9,CEDES,NMNR,2,R,CEDRES,5.2,30,0.3,3.8,NA,NA,IP
5,511,11,4,1,10,VOUA,NMNI,2,I,VOUAI,8,30,2.1,0,NA,NA,IP
5,511,11,4,2,1,POSAS,TNCSE,2,T,POSTAS,8,NA,0,0,NA,NA,noIP
5,511,11,4,2,2,ORAL,NCSET,2,E,ORALE,5,NA,0,0,NA,NA,noIP
5,511,11,4,2,3,RIDEE,NCSTB,2,B,BRIDEE,9,NA,0,0,NA,NA,noIP
5,511,11,4,2,4,BRIDEE,NCSTT,2,S,BRIDEES,10,NA,0,0,NA,NA,noIP
5,511,11,4,2,5,NA,NCTTJ,2,NA,NA,0,NA,0,0,1,NA,noIP
5,511,11,4,2,6,COLO,NCTTJU,2,N,COLON,7,NA,0,0,NA,NA,noIP
5,511,11,4,2,7,COL,CTTJUT,2,T,COLT,6,NA,0,0,NA,NA,noIP
5,511,11,4,2,8,COLON,CTJUTR,2,U,COULON,8,NA,0,0,NA,NA,noIP
5,511,11,4,2,9,"NAGE",CTJTRC,2,R,"NAGER",6,NA,0,0,NA,NA,noIP
5,511,11,4,2,10,POSAT,CTJTCN,2,N,POSANT,8,NA,0,0,NA,NA,noIP
5,512,12,4,1,1,NA,DIEET,3,EDITE,EDITE,6,70,0,0,NA,NA,IP
5,512,12,4,1,2,NA,N,3,NA,NA,0,0,0,0,1,NA,IP
5,512,12,4,1,3,NA,NB,3,NA,NA,0,NA,4.2,0,1,NA,IP
5,512,12,4,1,4,MEDITE,NBE,3,E,MEDITEE,8,90,0,1,NA,NA,IP
5,512,12,4,1,5,NA,NBO,3,BON,BON,5,100,0,0,NA,NA,IP
5,512,12,4,1,6,DINAI,T,3,T,DINAIT,4,80,0,3,NA,NA,IP
5,512,12,4,1,7,NA,O,3,NA,NA,0,0,0,0,1,NA,IP
5,512,12,4,1,8,NA,OD,3,NA,NA,0,NA,0,0,1,NA,IP
5,512,12,4,1,9,CEDRES,ODN,3,N,CENDRES,5.9,90,0,4.1,NA,NA,IP
5,512,12,4,1,10,NA,ODN,3,DON,DON,4,80,0,0,NA,NA,IP
5,512,12,4,2,1,NA,LCCRO,3,COL,COL,5,NA,0,0,NA,NA,noIP
5,512,12,4,2,2,IDEE,CRS,3,R,RIDEE,6,NA,0,0,NA,NA,noIP
5,512,12,4,2,3,RIDEE,CSU,3,S,RIDEES,7,NA,0,0,NA,NA,noIP
5,512,12,4,2,4,POSAS,CUI,3,I,POSAIS,8,NA,0,0,NA,NA,noIP
5,512,12,4,2,5,"NAGE",CUE,3,U,NUAGE,6,NA,0,0,NA,NA,noIP
5,512,12,4,2,6,COLO,CEE,3,C,COLOC,9,NA,0,0,NA,NA,noIP
5,512,12,4,2,7,COLO,EED,3,E,ECOLO,7,NA,0,0,NA,NA,noIP
5,512,12,4,2,8,NA,EDF,3,NA,NA,0,NA,0,0,1,NA,noIP
5,512,12,4,2,9,KOT,EDFQ,3,E,KOTE,13,NA,0,0,1,NA,noIP
5,512,12,4,2,10,NA,DFQN,3,NA,NA,0,0,0,0,1,NA,noIP
5,513,13,5,1,1,CEDE,SIPRE,1,R,CEDER,8,50,0,0,NA,NA,IP
5,513,13,5,1,2,CEDE,SIPES,1,S,CEDES,8,50,4,0,NA,NA,IP
5,513,13,5,1,3,CEDERA,IPESG,1,S,CEDERAS,9.7,50,2.5,0.3,NA,NA,IP
5,513,13,5,1,4,NA,IPEGE,1,NA,NA,0,0,0,0,1,NA,IP
5,513,13,5,1,5,POIL,IPEGEU,1,U,POILU,4,50,0,3,NA,NA,IP
5,513,13,5,1,6,NA,IPEGEA,1,PIGE,PIGE,7,60,0,0,NA,NA,IP
5,513,13,5,1,7,PIGE,EAE,1,A,PIGEA,8,50,0,0,NA,NA,IP
5,513,13,5,1,8,POILU,EEI,1,E,POILUE,5,50,0,3,NA,NA,IP
5,513,13,5,1,9,DINA,EIE,1,I,DINAI,6,50,0,0,NA,NA,IP
5,513,13,5,1,10,POIL,EEE,1,E,POILE,4,50,0,3,NA,NA,IP
5,513,13,5,2,1,ORAL,MCEDL,1,E,ORALE,5,NA,0,0,NA,NA,noIP
5,513,13,5,2,2,POSTA,MCDLI,1,L,POSTAL,8,NA,0,0,NA,NA,noIP
5,513,13,5,2,3,POSA,MCDIE,1,I,POSAI,7,NA,0,0,NA,NA,noIP
5,513,13,5,2,4,ORALE,MCDEF,1,M,MORALE,7,NA,0,0,NA,NA,noIP
5,513,13,5,2,5,"NAGE",CDEFO,1,E,"NAGEE",6,NA,0,0,NA,NA,noIP
5,513,13,5,2,6,"NAGE",CDFOR,1,R,"NAGER",6,NA,0,0,NA,NA,noIP
5,513,13,5,2,7,NA,CDFOU,1,FOU,FOU,6,NA,0,0,NA,NA,noIP
5,513,13,5,2,8,NA,CDN,1,NA,NA,0,0,0,0,1,NA,noIP
5,513,13,5,2,9,NA,CDNH,1,NA,NA,0,NA,0,0,NA,NA,noIP
5,513,13,5,2,10,"NAGEA",CDNHR,1,R,"NAGERA",7,NA,0,0,NA,NA,noIP
5,514,14,5,1,1,TENU,REKEI,2,E,TENUE,3,20,0,2,NA,NA,IP
5,514,14,5,1,2,VIT,RKEIF,2,E,VITE,5.2,70,0,1.8,NA,NA,IP
5,514,14,5,1,3,DINA,RKIFX,2,R,DINAR,3.5,30,0,2.5,NA,NA,IP
5,514,14,5,1,4,NA,KIFXE,2,FIXE,FIXE,16,50,0,0,NA,NA,IP
5,514,14,5,1,5,NA,KT,2,NA,NA,0,NA,3,0,1,NA,IP
5,514,14,5,1,6,VIT,KTO,2,O,VOIT,5.2,50,8,1.8,NA,NA,IP
5,514,14,5,1,7,NA,KTT,2,NA,NA,0,NA,0,0,1,NA,IP
5,514,14,5,1,8,VOUS,KTTA,2,A,VOUAS,4.5,80,3.8,3.5,NA,NA,IP
5,514,14,5,1,9,PANE,KTTS,2,S,PANSE,4.5,80,0,2.5,NA,NA,IP
5,514,14,5,1,10,NA,KTTI,2,KIT,KIT,12,100,3,0,NA,NA,IP
5,514,14,5,2,1,POSA,UYTNA,2,T,POSTA,7,NA,0,0,NA,NA,noIP
5,514,14,5,2,2,IDEE,UYNAL,2,A,AIDEE,6,NA,0,0,NA,NA,noIP
5,514,14,5,2,3,POSTAL,UYNLE,2,E,POSTALE,9,NA,0,0,NA,NA,noIP
5,514,14,5,2,4,NA,UYNLA,2,NA,NA,0,0,0,0,1,NA,noIP
5,514,14,5,2,5,"NAGE",UYNLAU,2,A,"NAGEA",6,NA,0,0,NA,NA,noIP
5,514,14,5,2,6,NA,UYNLUQ,2,NUL,NUL,3,NA,0,0,NA,NA,noIP
5,514,14,5,2,7,NA,YUQE,2,QUE,QUE,10,NA,0,0,NA,NA,noIP
5,514,14,5,2,8,BRIDEE,YS,2,S,BRIDEES,10,NA,0,0,NA,NA,noIP
5,514,14,5,2,9,NA,YX,2,NA,NA,0,0,0,0,1,NA,noIP
5,514,14,5,2,10,ORAL,YXM,2,M,MORAL,6,NA,0,0,NA,NA,noIP
5,515,15,5,1,1,NA,NNVTI,3,VIT,VIT,6,30,2,0,NA,NA,IP
5,515,15,5,1,2,CEDER,NNA,3,A,CEDERA,5,30,1.8,4,NA,NA,IP
5,515,15,5,1,3,NA,NNP,3,NA,NA,0,NA,0.3,0,1,NA,IP
5,515,15,5,1,4,NA,NNPA,3,PAN,PAN,5,40,0,0,NA,NA,IP
5,515,15,5,1,5,NA,NI,3,NA,NA,0,0,0,0,1,NA,IP
5,515,15,5,1,6,FIXE,NIS,3,S,FIXES,9,60,1.8,8,NA,NA,IP
5,515,15,5,1,7,PAN,NIE,3,E,PANE,6,50,0,0,NA,NA,IP
5,515,15,5,1,8,VOUAS,NII,3,I,VOUAIS,8.2,70,3.5,0.8,NA,NA,IP
5,515,15,5,1,9,PANE,NIA,3,N,PANNE,7,50,2.5,0,NA,NA,IP
5,515,15,5,1,10,PAN,IAB,3,A,PANA,6,20,0,0,NA,NA,IP
5,515,15,5,2,1,IDEE,EIOVT,3,V,VIDEE,9,NA,0,0,NA,NA,noIP
5,515,15,5,2,2,POSTA,EIOTB,3,T,POSTAT,8,NA,0,0,NA,NA,noIP
5,515,15,5,2,3,POSTAT,EIOBE,3,I,POSTAIT,9,NA,0,0,NA,NA,noIP
5,515,15,5,2,4,IDEE,EOBET,3,O,IODEE,6,NA,0,0,NA,NA,noIP
5,515,15,5,2,5,IDEE,EBETR,3,R,RIDEE,6,NA,0,0,NA,NA,noIP
5,515,15,5,2,6,RIDEE,EBETN,3,B,BRIDEE,9,NA,0,0,NA,NA,noIP
5,515,15,5,2,7,FOU,EETNA,3,T,FOUT,7,NA,0,0,NA,NA,noIP
5,515,15,5,2,8,FOUT,EENAI,3,E,FOUET,8,NA,0,0,NA,NA,noIP
5,515,15,5,2,9,VIDEE,ENAIS,3,S,VIDEES,10,NA,0,0,NA,NA,noIP
5,515,15,5,2,10,"NAGERA",ENAIA,3,I,"NAGERAI",8,NA,0,0,1,NA,noIP
6,601,1,1,1,1,TENU,EGODM,1,E,TENUE,5,100,0,0,NA,NA,IP
6,601,1,1,1,2,NA,GODMN,1,DOM,DOM,5,100,0,0,NA,NA,IP
6,601,1,1,1,3,DOM,GNE,1,E,DOME,6,100,0,0,NA,NA,IP
6,601,1,1,1,4,NA,GNU,1,NA,NA,0,NA,0,0,1,NA,IP
6,601,1,1,1,5,NA,GNUC,1,NA,NA,0,0,0,0,1,NA,IP
6,601,1,1,1,6,NA,GNUCT,1,CUT,CUT,5,100,0,0,NA,NA,IP
6,601,1,1,1,7,ORAL,GNE,1,E,ORALE,5,100,0,0,NA,NA,IP
6,601,1,1,1,8,DOM,GNU,1,U,DOUM,6,100,0,0,NA,NA,IP
6,601,1,1,1,9,NA,GNT,1,NA,NA,0,NA,0,0,1,NA,IP
6,601,1,1,1,10,NA,GNTE,1,NET,NET,3,100,0,0,NA,NA,IP
6,601,1,1,2,1,CEDE,SLETE,1,E,CEDEE,8,NA,0,0,NA,NA,noIP
6,601,1,1,2,2,CEDEE,SLTER,1,S,CEDEES,9,NA,0,0,NA,NA,noIP
6,601,1,1,2,3,CEDE,LTERC,1,R,CEDER,8,NA,0,0,NA,NA,noIP
6,601,1,1,2,4,POSA,LTECA,1,T,POSTA,7,NA,0,0,NA,NA,noIP
6,601,1,1,2,5,POSTAL,LECAA,1,E,POSTALE,9,NA,0,0,NA,NA,noIP
6,601,1,1,2,6,NA,LCAAN,1,CANAL,CANAL,7,NA,0,0,NA,NA,noIP
6,601,1,1,2,7,NUES,O,1,O,NOUES,5,NA,0,0,NA,NA,noIP
6,601,1,1,2,8,NOUES,E,1,E,NOUEES,6,NA,0,0,NA,NA,noIP
6,601,1,1,2,9,NA,H,1,NA,NA,0,0,0,0,1,NA,noIP
6,601,1,1,2,10,POSAI,HT,1,T,POSAIT,8,NA,0,0,NA,NA,noIP
6,602,2,1,1,1,NA,LTSAE,2,TAS,TAS,3,50,0,0,NA,NA,IP
6,602,2,1,1,2,POIL,LEC,2,E,POILE,7,50,0,0,NA,NA,IP
6,602,2,1,1,3,POILE,LCE,2,E,POILEE,8,50,3,0,NA,NA,IP
6,602,2,1,1,4,DINA,LCT,2,T,DINAT,3.5,50,0,2.5,NA,NA,IP
6,602,2,1,1,5,"NAGE",LCR,2,R,"NAGER",6,50,0,0,NA,NA,IP
6,602,2,1,1,6,NA,LCL,2,NA,NA,0,0,0,0,1,NA,IP
6,602,2,1,1,7,NA,LCLH,2,NA,NA,0,NA,0,0,1,NA,IP
6,602,2,1,1,8,NA,LCLHA,2,LAC,LAC,5,80,0,0,NA,NA,IP
6,602,2,1,1,9,DINAT,LHI,2,I,DINAIT,4.5,80,0,2.5,NA,NA,IP
6,602,2,1,1,10,POIL,LHA,2,A,POILA,7,80,0,0,NA,NA,IP
6,602,2,1,2,1,NA,YNQOL,2,NA,NA,0,NA,0,0,1,NA,noIP
6,602,2,1,2,2,CEDE,YNQOLS,2,S,CEDES,8,NA,0,0,NA,NA,noIP
6,602,2,1,2,3,YEN,YNQOLS,2,S,YENS,13,NA,0,0,NA,NA,noIP
6,602,2,1,2,4,POSTA,YNQOLE,2,L,POSTAL,8,NA,0,0,NA,NA,noIP
6,602,2,1,2,5,NA,YNQOEE,2,NOYEE,NOYEE,14,NA,0,0,NA,NA,noIP
6,602,2,1,2,6,NA,QN,2,NA,NA,0,0,0,0,1,NA,noIP
6,602,2,1,2,7,NA,QNN,2,NA,NA,0,NA,0,0,1,NA,noIP
6,602,2,1,2,8,NA,QNNU,2,NA,NA,0,NA,0,0,1,NA,noIP
6,602,2,1,2,9,NA,QNNUR,2,NA,NA,0,0,0,0,1,NA,noIP
6,602,2,1,2,10,NA,QNNURT,2,NA,NA,0,0,0,0,1,NA,noIP
6,603,3,1,1,1,NA,LUNES,3,LUNES,LUNES,5,50,0,0,NA,NA,IP
6,603,3,1,1,2,NA,B,3,NA,NA,0,NA,0,0,NA,NA,IP
6,603,3,1,1,3,POIL,BU,3,U,POILU,4,100,0,3,NA,NA,IP
6,603,3,1,1,4,NA,BT,3,NA,NA,0,NA,2.5,0,NA,NA,IP
6,603,3,1,1,5,NA,BTL,3,NA,NA,0,NA,0,0,NA,NA,IP
6,603,3,1,1,6,NA,BTLF,3,NA,NA,0,NA,0,0,NA,NA,IP
6,603,3,1,1,7,NA,BTLFU,3,FUT,FUT,6,80,0,0,NA,NA,IP
6,603,3,1,1,8,IDEE,BLS,3,S,IDEES,6,90,0,0,NA,NA,IP
6,603,3,1,1,9,NA,BLO,3,NA,NA,0,0,2.5,0,1,NA,IP
6,603,3,1,1,10,NA,BLOU,3,BOL,BOL,5,100,0,0,NA,NA,IP
6,603,3,1,2,1,SORS,YENNE,3,E,SORES,5,NA,0,0,NA,NA,noIP
6,603,3,1,2,2,NA,YNNEE,3,YEN,YEN,12,NA,0,0,NA,NA,noIP
6,603,3,1,2,3,CEDER,NEA,3,A,CEDERA,9,NA,0,0,NA,NA,noIP
6,603,3,1,2,4,LIEU,NEA,3,E,LIEUE,5,NA,0,0,NA,NA,noIP
6,603,3,1,2,5,NA,"NAL",3,NA,NA,0,NA,0,0,1,NA,noIP
6,603,3,1,2,6,NA,"NALO",3,NA,NA,0,NA,0,0,NA,NA,noIP
6,603,3,1,2,7,POSA,"NALOI",3,I,POSAI,7,NA,0,0,NA,NA,noIP
6,603,3,1,2,8,NA,"NALOE",3,NA,NA,0,NA,0,0,1,NA,noIP
6,603,3,1,2,9,NUES,"NALOEA",3,E,NUEES,5,NA,0,0,NA,NA,noIP
6,603,3,1,2,10,NOYEE,"NALOAS",3,S,NOYEES,15,NA,0,0,NA,NA,noIP
6,604,4,2,1,1,"NAGE",DNLIA,1,A,"NAGEA",3.5,50,2,2.5,NA,NA,IP
6,604,4,2,1,2,TENU,DNLIA,1,D,TENDU,6,50,0,0,NA,NA,IP
6,604,4,2,1,3,NA,NLIAO,1,LINO,LINO,4,80,0,0,NA,NA,IP
6,604,4,2,1,4,TENDU,AS,1,S,TENDUS,7,60,0,0,NA,NA,IP
6,604,4,2,1,5,TENDUS,AE,1,E,TENDUES,8,50,2,0,NA,NA,IP
6,604,4,2,1,6,IDEES,AA,1,A,AIDEES,4.3,50,2,2.7,NA,NA,IP
6,604,4,2,1,7,TAXA,AS,1,S,TAXAS,11,50,0,3,NA,NA,IP
6,604,4,2,1,8,AXA,AT,1,T,AXAT,10.6,50,0,2.4,NA,NA,IP
6,604,4,2,1,9,POIL,AR,1,A,POILA,4,50,0,3,NA,NA,IP
6,604,4,2,1,10,IDEE,RV,1,V,VIDEE,6.5,50,0,2.5,NA,NA,IP
6,604,4,2,2,1,NA,REYEY,1,REE,REE,3,NA,0,0,NA,NA,noIP
6,604,4,2,2,2,NA,YYR,1,NA,NA,0,0,0,0,1,NA,noIP
6,604,4,2,2,3,CEDRE,YYRS,1,S,CEDRES,9,NA,0,0,NA,NA,noIP
6,604,4,2,2,4,POSAI,YYRS,1,S,POSAIS,8,NA,0,0,NA,NA,noIP
6,604,4,2,2,5,NUES,YYRF,1,R,NUERS,5,NA,0,0,NA,NA,noIP
6,604,4,2,2,6,NA,YYFA,1,NA,NA,0,0,0,0,1,NA,noIP
6,604,4,2,2,7,NA,YYFAL,1,NA,NA,0,0,0,0,1,NA,noIP
6,604,4,2,2,8,NA,YYFALQ,1,NA,NA,0,0,0,0,1,NA,noIP
6,604,4,2,2,9,NA,YYFALQO,1,NA,NA,0,NA,0,0,1,NA,noIP
6,604,4,2,2,10,NA,YYFALQOE,1,FELA,FELA,7,NA,0,0,1,NA,noIP
6,605,5,2,1,1,ORAL,EXMPM,2,E,ORALE,3,50,2.5,2,NA,NA,IP
6,605,5,2,1,2,NA,XMPMT,2,NA,NA,0,NA,0,0,1,NA,IP
6,605,5,2,1,3,NA,XMPMTC,2,NA,NA,0,NA,0,0,1,NA,IP
6,605,5,2,1,4,AXA,XMPMTCS,2,T,TAXA,10.6,60,0,2.4,NA,NA,IP
6,605,5,2,1,5,ORALE,XMPMCSC,2,M,MORALE,5,50,0,2,NA,NA,IP
6,605,5,2,1,6,ORAL,XPMCSCE,2,M,MORAL,4,100,0,2,NA,NA,IP
6,605,5,2,1,7,NA,XPCSCEO,2,NA,NA,0,0,3.6,0,1,NA,IP
6,605,5,2,1,8,NA,XPCSCEOK,2,POSE,POSE,6,50,0,0,NA,NA,IP
6,605,5,2,1,9,POSE,XCCKE,2,E,POSEE,7,50,5.5,0,NA,NA,IP
6,605,5,2,1,10,NA,XCCKN,2,NA,NA,0,0,0,0,1,NA,IP
6,605,5,2,2,1,CEDE,UARET,2,R,CEDRE,8,NA,0,0,NA,NA,noIP
6,605,5,2,2,2,SORS,UAETD,2,T,SORTS,5,NA,0,0,NA,NA,noIP
6,605,5,2,2,3,POSAI,UAEDT,2,T,POSAIT,8,NA,0,0,NA,NA,noIP
6,605,5,2,2,4,REE,UAEDL,2,L,REEL,4,NA,0,0,NA,NA,noIP
6,605,5,2,2,5,CEDRES,UAEDN,2,N,CENDRES,10,NA,0,0,NA,NA,noIP
6,605,5,2,2,6,NUERS,UAEDO,2,A,NUERAS,6,NA,0,0,NA,NA,noIP
6,605,5,2,2,7,NA,UEDOA,2,NA,NA,0,0,0,0,1,NA,noIP
6,605,5,2,2,8,LIEU,UEDOAL,2,E,LIEUE,5,NA,0,0,NA,NA,noIP
6,605,5,2,2,9,NA,UDOALA,2,NA,NA,0,0,0,0,1,NA,noIP
6,605,5,2,2,10,UREE,UDOALAI,2,D,DUREE,6,NA,0,0,NA,NA,noIP
6,606,6,2,1,1,IDEE,AXAAA,3,A,AIDEE,6,20,0,0,NA,NA,IP
6,606,6,2,1,2,IDEE,XAAAS,3,S,IDEES,6,20,0,0,NA,NA,IP
6,606,6,2,1,3,NA,XAAAC,3,AXA,AXA,12,20,0,0,NA,NA,IP
6,606,6,2,1,4,NA,ACA,3,NA,NA,0,0,2.4,0,1,NA,IP
6,606,6,2,1,5,NA,ACAP,3,PACA,PACA,8,20,0,0,NA,NA,IP
6,606,6,2,1,6,NA,E,3,NA,NA,0,0,2.7,0,1,NA,IP
6,606,6,2,1,7,POIL,EE,3,E,POILE,4,40,2.4,3,NA,NA,IP
6,606,6,2,1,8,AXA,EI,3,I,AXAI,13,20,2.4,0,NA,NA,IP
6,606,6,2,1,9,"NAGE",EJ,3,E,"NAGEE",3.5,20,0,2.5,NA,NA,IP
6,606,6,2,1,10,IDEES,JR,3,R,RIDEES,7,20,2.5,0,NA,NA,IP
6,606,6,2,2,1,CEDE,IUAOR,3,R,CEDER,8,NA,0,0,NA,NA,noIP
6,606,6,2,2,2,POSA,IUAOA,3,I,POSAI,7,NA,0,0,NA,NA,noIP
6,606,6,2,2,3,NA,UAOAA,3,NA,NA,0,NA,0,0,NA,NA,noIP
6,606,6,2,2,4,CEDE,UAOAAE,3,E,CEDEE,8,NA,0,0,NA,NA,noIP
6,606,6,2,2,5,CEDEE,UAOAAS,3,S,CEDEES,9,NA,0,0,NA,NA,noIP
6,606,6,2,2,6,NA,UAOAAB,3,NA,NA,0,0,0,0,1,NA,noIP
6,606,6,2,2,7,NA,UAOAABO,3,BOA,BOA,5,NA,0,0,NA,NA,noIP
6,606,6,2,2,8,CEDER,UAAOU,3,A,CEDERA,9,NA,0,0,1,NA,noIP
6,606,6,2,2,9,REE,UAOUU,3,U,UREE,4,NA,0,0,NA,NA,noIP
6,606,6,2,2,10,NA,AOUUU,3,NA,NA,0,0,0,0,1,NA,noIP
6,607,7,3,1,1,NA,NGAIA,1,GAI,GAI,4,100,0,0,NA,NA,IP
6,607,7,3,1,2,"NAGE","NAR",1,R,"NAGER",3.5,100,0,2.5,NA,NA,IP
6,607,7,3,1,3,GAI,"NAI",1,N,GAIN,5,100,0,0,NA,NA,IP
6,607,7,3,1,4,NA,AIU,1,NA,NA,0,NA,0,0,1,NA,IP
6,607,7,3,1,5,"NAGE",AIUU,1,A,"NAGEA",3.5,100,1,2.5,NA,NA,IP
6,607,7,3,1,6,NA,IUUM,1,NA,NA,0,NA,0,0,1,NA,IP
6,607,7,3,1,7,FIN,IUUMT,1,I,FINI,5.8,100,1,1.2,NA,NA,IP
6,607,7,3,1,8,FINI,UUMTR,1,T,FINIT,6.8,100,0,1.2,NA,NA,IP
6,607,7,3,1,9,FINI,UUMRO,1,R,FINIR,6.8,100,0,1.2,NA,NA,IP
6,607,7,3,1,10,NA,UUMOD,1,NA,NA,0,NA,1,0,NA,NA,IP
6,607,7,3,2,1,NA,UMRUQ,1,NA,NA,0,NA,0,0,NA,NA,noIP
6,607,7,3,2,2,NA,UMRUQT,1,NA,NA,0,NA,0,0,NA,NA,noIP
6,607,7,3,2,3,NA,UMRUQTD,1,NA,NA,0,NA,0,0,NA,NA,noIP
6,607,7,3,2,4,CEDE,UMRUQTDR,1,R,CEDER,8,NA,0,0,NA,NA,noIP
6,607,7,3,2,5,NA,UMUQTDRL,1,NA,NA,0,NA,0,0,NA,NA,noIP
6,607,7,3,2,6,CEDE,UMUQTDRLS,1,S,CEDES,8,NA,0,0,NA,NA,noIP
6,607,7,3,2,7,NA,UMUQTDRLW,1,NA,NA,0,0,0,0,1,NA,noIP
6,607,7,3,2,8,NA,UMUQTDRLWA,1,NA,NA,0,0,0,0,1,NA,noIP
6,607,7,3,2,9,CEDER,UMUQTDRLWAN,1,A,CEDERA,9,NA,0,0,NA,NA,noIP
6,607,7,3,2,10,NA,UMUQTDRLWNE,1,NA,NA,0,0,0,0,1,NA,noIP
6,608,8,3,1,1,POIL,UVNYN,2,U,POILU,7,10,0,0,NA,NA,IP
6,608,8,3,1,2,POILU,VNYNE,2,E,POILUE,8,20,2.5,0,NA,NA,IP
6,608,8,3,1,3,NA,VNYNI,2,NA,NA,0,0,0,0,1,NA,IP
6,608,8,3,1,4,NA,VNYNII,2,NA,NA,0,NA,0,0,1,NA,IP
6,608,8,3,1,5,"NAGEA",VNYNIIF,2,I,"NAGEAI",6,20,2.5,1,NA,NA,IP
6,608,8,3,1,6,NA,VNYNIFB,2,FIN,FIN,6,20,0,0,NA,NA,IP
6,608,8,3,1,7,"NAGER",VYNBA,2,A,"NAGERA",6,30,1.2,1,NA,NA,IP
6,608,8,3,1,8,NA,VYNBI,2,NA,NA,0,0,1.2,0,1,NA,IP
6,608,8,3,1,9,NA,VYNBIE,2,YEN,YEN,12,50,1.2,0,NA,NA,IP
6,608,8,3,1,10,"NAGERA",VBIE,2,I,"NAGERAI",7,40,1.2,1,NA,NA,IP
6,608,8,3,2,1,CEDE,TCOFE,2,E,CEDEE,8,NA,0,0,NA,NA,noIP
6,608,8,3,2,2,NA,TCOFD,2,NA,NA,0,NA,0,0,1,NA,noIP
6,608,8,3,2,3,POSA,TCOFDP,2,T,POSAT,7,NA,0,0,1,NA,noIP
6,608,8,3,2,4,NA,COFDPA,2,DOP,DOP,6,NA,0,0,1,NA,noIP
6,608,8,3,2,5,DOP,CFAF,2,A,DOPA,7,NA,0,0,NA,NA,noIP
6,608,8,3,2,6,NA,CFFN,2,NA,NA,0,0,0,0,1,NA,noIP
6,608,8,3,2,7,DOPA,CFFNT,2,T,DOPAT,8,NA,0,0,NA,NA,noIP
6,608,8,3,2,8,NA,CFFNS,2,NA,NA,0,0,0,0,1,NA,noIP
6,608,8,3,2,9,NA,CFFNST,2,NA,NA,0,0,0,0,1,NA,noIP
6,608,8,3,2,10,CEDERA,CFFNSTS,2,S,CEDERAS,10,NA,0,0,NA,NA,noIP
6,609,9,3,1,1,NA,RAFKZ,3,RAZ,RAZ,12,30,0,0,NA,NA,IP
6,609,9,3,1,2,NA,FKO,3,NA,NA,0,NA,0,0,NA,NA,IP
6,609,9,3,1,3,NA,FKON,3,NA,NA,0,NA,0,0,NA,NA,IP
6,609,9,3,1,4,NA,FKONO,3,NA,NA,0,0,0,0,1,NA,IP
6,609,9,3,1,5,NA,FKONOO,3,NA,NA,0,0,0,0,1,NA,IP
6,609,9,3,1,6,NA,FKONOOD,3,FOND,FOND,8,80,0,0,NA,NA,IP
6,609,9,3,1,7,NA,KOOO,3,NA,NA,0,NA,0,0,NA,NA,IP
6,609,9,3,1,8,NA,KOOOB,3,NA,NA,0,NA,0,0,NA,NA,IP
6,609,9,3,1,9,FOND,KOOOBS,3,S,FONDS,9,40,0,0,NA,NA,IP
6,609,9,3,1,10,FIN,KOOOBL,3,O,FION,5.8,50,0,1.2,NA,NA,IP
6,609,9,3,2,1,CEDE,ZHYHL,3,Z,CEDEZ,17,NA,0,0,NA,NA,noIP
6,609,9,3,2,2,NA,HYHLL,3,NA,NA,0,NA,0,0,1,NA,noIP
6,609,9,3,2,3,NA,HYHLLW,3,NA,NA,0,NA,0,0,NA,NA,noIP
6,609,9,3,2,4,NA,HYHLLWU,3,NA,NA,0,NA,0,0,NA,NA,noIP
6,609,9,3,2,5,NA,HYHLLWUO,3,WOH,WOH,15,NA,0,0,NA,NA,noIP
6,609,9,3,2,6,NA,YHLLUM,3,NA,NA,0,0,0,0,1,NA,noIP
6,609,9,3,2,7,NA,YHLLUMO,3,NA,NA,0,NA,0,0,NA,NA,noIP
6,609,9,3,2,8,NA,YHLLUMOT,3,NA,NA,0,0,0,0,1,NA,noIP
6,609,9,3,2,9,NA,YHLLUMOTE,3,MOULT,MOULT,6,NA,0,0,NA,NA,noIP
6,609,9,3,2,10,NA,YHLET,3,TEL,TEL,3,NA,0,0,NA,NA,noIP
6,610,10,4,1,1,TENU,MMIET,1,E,TENUE,5,40,0,0,NA,NA,IP
6,610,10,4,1,2,NA,MMITT,1,MIT,MIT,4,50,0,0,NA,NA,IP
6,610,10,4,1,3,NA,MTM,1,NA,NA,0,0,0,0,1,NA,IP
6,610,10,4,1,4,DINA,MTMM,1,T,DINAT,3.5,40,2,2.5,NA,NA,IP
6,610,10,4,1,5,ORAL,MMML,1,M,MORAL,6,60,0,0,NA,NA,IP
6,610,10,4,1,6,POIL,MMLU,1,U,POILU,4,50,2,3,NA,NA,IP
6,610,10,4,1,7,NA,MMLD,1,NA,NA,0,0,2,0,1,NA,IP
6,610,10,4,1,8,IMITER,MMLDN,1,L,LIMITER,6,60,2,2,NA,NA,IP
6,610,10,4,1,9,NA,MMDNJ,1,NA,NA,0,0,0,0,1,NA,IP
6,610,10,4,1,10,LIMITER,MMDNJA,1,A,LIMITERA,7,80,2,2,NA,NA,IP
6,610,10,4,2,1,LIEU,SAAEY,1,E,LIEUE,5,NA,0,0,NA,NA,noIP
6,610,10,4,2,2,POSAT,SAAYN,1,N,POSANT,8,NA,0,0,NA,NA,noIP
6,610,10,4,2,3,NA,SAAYU,1,NA,NA,0,0,0,0,1,NA,noIP
6,610,10,4,2,4,NA,SAAYUD,1,NA,NA,0,0,0,0,1,NA,noIP
6,610,10,4,2,5,POSA,SAAYUDA,1,S,POSAS,7,NA,0,0,NA,NA,noIP
6,610,10,4,2,6,NA,AAYUDAN,1,DAN,DAN,4,NA,0,0,NA,NA,noIP
6,610,10,4,2,7,CEDER,AYUAE,1,A,CEDERA,9,NA,0,0,NA,NA,noIP
6,610,10,4,2,8,SORS,YUAEE,1,E,SORES,5,NA,0,0,NA,NA,noIP
6,610,10,4,2,9,NA,YUAEX,1,NA,NA,0,0,0,0,1,NA,noIP
6,610,10,4,2,10,NA,YUAEXN,1,NA,NA,0,0,0,0,1,NA,noIP
6,611,11,4,1,1,NA,ANITT,2,TANT,TANT,4,50,0,0,NA,NA,IP
6,611,11,4,1,2,LAMAT,IL,2,I,LAMAIT,5.8,100,0,1.2,NA,NA,IP
6,611,11,4,1,3,"NAGE",LR,2,R,"NAGER",6,0,0,0,NA,NA,IP
6,611,11,4,1,4,"NAGER",LA,2,A,"NAGERA",7,0,0,0,NA,NA,IP
6,611,11,4,1,5,NA,LP,2,NA,NA,0,NA,0,0,1,NA,IP
6,611,11,4,1,6,NA,LPT,2,NA,NA,0,0,3,0,1,NA,IP
6,611,11,4,1,7,IMITE,LPTR,2,R,IMITER,3.7,70,0,3.3,NA,NA,IP
6,611,11,4,1,8,IMITE,LPTN,2,L,LIMITE,3.7,100,0.7,3.3,NA,NA,IP
6,611,11,4,1,9,NA,PTNL,2,NA,NA,0,NA,0,0,1,NA,IP
6,611,11,4,1,10,"NAGERA",PTNLS,2,S,"NAGERAS",8,100,0.7,0,NA,NA,IP
6,611,11,4,2,1,NUES,HZUOU,2,O,NOUES,5,NA,0,0,NA,NA,noIP
6,611,11,4,2,2,NA,HZUUT,2,ZUT,ZUT,12,NA,0,0,NA,NA,noIP
6,611,11,4,2,3,NA,HUD,2,NA,NA,0,0,0,0,1,NA,noIP
6,611,11,4,2,4,NA,HUDU,2,NA,NA,0,0,0,0,1,NA,noIP
6,611,11,4,2,5,POSAT,HUDUI,2,I,POSAIT,8,NA,0,0,NA,NA,noIP
6,611,11,4,2,6,VOUAS,HUDUA,2,A,AVOUAS,9,NA,0,0,NA,NA,noIP
6,611,11,4,2,7,NA,HUDUX,2,NA,NA,0,0,0,0,1,NA,noIP
6,611,11,4,2,8,NA,HUDUXE,2,DEUX,DEUX,14,NA,0,0,NA,NA,noIP
6,611,11,4,2,9,NA,HUQ,2,NA,NA,0,NA,0,0,1,NA,noIP
6,611,11,4,2,10,NA,HUQU,2,NA,NA,0,0,0,0,1,NA,noIP
6,612,12,4,1,1,NA,ALATM,3,LAMAT,LAMAT,6,20,0,0,NA,NA,IP
6,612,12,4,1,2,LAMAT,N,3,N,LAMANT,7,60,1.2,0,NA,NA,IP
6,612,12,4,1,3,NA,E,3,NA,NA,0,0,0,0,1,NA,IP
6,612,12,4,1,4,MIT,EW,3,E,MITE,3,80,2.5,2,NA,NA,IP
6,612,12,4,1,5,DINA,WR,3,R,DINAR,6,50,0,0,NA,NA,IP
6,612,12,4,1,6,MITE,WI,3,I,IMITE,4,50,0,2,NA,NA,IP
6,612,12,4,1,7,NA,WI,3,NA,NA,0,0,1.3,0,1,NA,IP
6,612,12,4,1,8,NA,WIB,3,NA,NA,0,NA,2.6,0,1,NA,IP
6,612,12,4,1,9,NA,WIBF,3,NA,NA,0,0,0,0,1,NA,IP
6,612,12,4,1,10,MITE,WIBFO,3,O,MOITE,4,30,1.3,2,NA,NA,IP
6,612,12,4,2,1,POSA,QDTFP,3,T,POSAT,7,NA,0,0,NA,NA,noIP
6,612,12,4,2,2,NA,QDFPJ,3,NA,NA,0,0,0,0,1,NA,noIP
6,612,12,4,2,3,LIEU,QDFPJS,3,S,LIEUS,5,NA,0,0,NA,NA,noIP
6,612,12,4,2,4,NA,QDFPJA,3,NA,NA,0,0,0,0,1,NA,noIP
6,612,12,4,2,5,VOUS,QDFPJAW,3,A,VOUAS,8,NA,0,0,NA,NA,noIP
6,612,12,4,2,6,CEDE,QDFPJWR,3,R,CEDER,8,NA,0,0,NA,NA,noIP
6,612,12,4,2,7,NA,QDFPJWB,3,NA,NA,0,0,0,0,1,NA,noIP
6,612,12,4,2,8,NA,QDFPJWBY,3,NA,NA,0,0,0,0,1,NA,noIP
6,612,12,4,2,9,SORES,QDFPJWBYO,3,B,SORBES,8,NA,0,0,1,NA,noIP
6,612,12,4,2,10,NA,QDFPJWYOU,3,POUF,POUF,9,NA,0,0,NA,NA,noIP
6,613,13,5,1,1,TENU,ESSGG,1,E,TENUE,5,70,0,0,NA,NA,IP
6,613,13,5,1,2,NA,SSGGI,1,GIS,GIS,4,40,0,0,NA,NA,IP
6,613,13,5,1,3,TENUE,SGL,1,S,TENUES,6,0,0,0,NA,NA,IP
6,613,13,5,1,4,AIES,GLO,1,G,GAIES,3.6,30,2,2.4,NA,NA,IP
6,613,13,5,1,5,AIES,LOJ,1,L,LAIES,2.6,30,0,2.4,NA,NA,IP
6,613,13,5,1,6,POIL,OJA,1,A,POILA,4,40,0,3,NA,NA,IP
6,613,13,5,1,7,GAIES,OJN,1,N,GAINES,4.6,70,0,2.4,NA,NA,IP
6,613,13,5,1,8,"NAGE",OJA,1,A,"NAGEA",3.5,40,0.4,2.5,NA,NA,IP
6,613,13,5,1,9,POILS,OJA,1,A,POILAS,4.5,40,2,3.5,NA,NA,IP
6,613,13,5,1,10,IDEE,OJV,1,V,VIDEE,6.5,50,1.3,2.5,NA,NA,IP
6,613,13,5,2,1,SORS,UHQNI,1,I,SOIRS,5,NA,0,0,NA,NA,noIP
6,613,13,5,2,2,NA,UHQNA,1,NA,NA,0,NA,0,0,1,NA,noIP
6,613,13,5,2,3,CEDER,UHQNAC,1,A,CEDERA,9,NA,0,0,NA,NA,noIP
6,613,13,5,2,4,NA,UHQNCO,1,CON,CON,5,NA,0,0,1,NA,noIP
6,613,13,5,2,5,NA,UHQA,1,NA,NA,0,NA,0,0,NA,NA,noIP
6,613,13,5,2,6,NA,UHQAG,1,NA,NA,0,NA,0,0,1,NA,noIP
6,613,13,5,2,7,CEDE,UHQAGR,1,R,CEDRE,8,NA,0,0,NA,NA,noIP
6,613,13,5,2,8,LIEU,UHQAGE,1,E,LIEUE,5,NA,0,0,NA,NA,noIP
6,613,13,5,2,9,NA,UHQAGD,1,NA,NA,0,NA,0,0,1,NA,noIP
6,613,13,5,2,10,NA,UHQAGDE,1,DAGUE,DAGUE,7,NA,0,0,NA,NA,noIP
6,614,14,5,1,1,POIL,AISSQ,2,S,POILS,7,50,0,0,NA,NA,IP
6,614,14,5,1,2,NA,AISQE,2,AIES,AIES,4,60,0,0,NA,NA,IP
6,614,14,5,1,3,NA,QE,2,NA,NA,0,NA,0,0,NA,NA,IP
6,614,14,5,1,4,ORAL,QEI,2,E,ORALE,3,50,2.4,2,NA,NA,IP
6,614,14,5,1,5,AIES,QIT,2,T,TAIES,5,60,4.8,0,NA,NA,IP
6,614,14,5,1,6,NA,QIS,2,NA,NA,0,0,5.4,0,1,NA,IP
6,614,14,5,1,7,AIES,QISG,2,G,AGIES,6,50,2.4,0,NA,NA,IP
6,614,14,5,1,8,POILA,QISI,2,I,POILAI,7.6,50,2.5,0.4,NA,NA,IP
6,614,14,5,1,9,POILAI,QSIE,2,S,POILAIS,8.6,100,3.5,0.4,NA,NA,IP
6,614,14,5,1,10,AIES,QIED,2,D,AIDES,6,50,2.4,0,NA,NA,IP
6,614,14,5,2,1,NA,EATHL,2,THE,THE,6,NA,0,0,NA,NA,noIP
6,614,14,5,2,2,CEDES,ALE,2,E,CEDEES,9,NA,0,0,NA,NA,noIP
6,614,14,5,2,3,POSA,ALI,2,I,POSAI,7,NA,0,0,NA,NA,noIP
6,614,14,5,2,4,NA,ALU,2,NA,NA,0,NA,0,0,1,NA,noIP
6,614,14,5,2,5,NA,ALUN,2,NA,NA,0,NA,0,0,NA,NA,noIP
6,614,14,5,2,6,CEDERA,ALUNS,2,S,CEDERAS,10,NA,0,0,NA,NA,noIP
6,614,14,5,2,7,NA,ALUNO,2,NA,NA,0,NA,0,0,NA,NA,noIP
6,614,14,5,2,8,NA,ALUNOP,2,NUL,NUL,3,NA,0,0,NA,NA,noIP
6,614,14,5,2,9,NA,AOPU,2,POU,POU,5,NA,0,0,NA,NA,noIP
6,614,14,5,2,10,NA,AH,2,NA,NA,0,NA,0,0,1,NA,noIP
6,615,15,5,1,1,DINA,WRTEO,3,R,DINAR,6,50,0,0,NA,NA,IP
6,615,15,5,1,2,DINA,WTEOQ,3,T,DINAT,6,60,0,0,NA,NA,IP
6,615,15,5,1,3,NA,WEOQQ,3,NA,NA,0,0,0,0,1,NA,IP
6,615,15,5,1,4,DINAR,WEOQQS,3,S,DINARS,7,60,0,0,NA,NA,IP
6,615,15,5,1,5,AIES,WEOQQL,3,L,AILES,2.6,40,0,2.4,NA,NA,IP
6,615,15,5,1,6,AILES,WEOQQE,3,E,AILEES,3.6,30,0,2.4,NA,NA,IP
6,615,15,5,1,7,NA,WOQQEU,3,QUE,QUE,10,60,0,0,NA,NA,IP
6,615,15,5,1,8,NA,WOQA,3,NA,NA,0,0,0,0,1,NA,IP
6,615,15,5,1,9,GIS,WOQAE,3,A,AGIS,3.4,40,0,1.6,NA,NA,IP
6,615,15,5,1,10,GAINES,WOQEE,3,E,GAINEES,4.3,50,2.5,3.7,NA,NA,IP
6,615,15,5,2,1,CEDE,RBSOA,3,S,CEDES,8,NA,0,0,NA,NA,noIP
6,615,15,5,2,2,CEDE,RBOAE,3,R,CEDER,8,NA,0,0,NA,NA,noIP
6,615,15,5,2,3,NUES,BOAEF,3,E,NUEES,5,NA,0,0,NA,NA,noIP
6,615,15,5,2,4,NA,BOAFM,3,BOA,BOA,5,NA,0,0,NA,NA,noIP
6,615,15,5,2,5,NA,FMA,3,NA,NA,0,NA,0,0,1,NA,noIP
6,615,15,5,2,6,CEDE,FMAE,3,E,CEDEE,8,NA,0,0,NA,NA,noIP
6,615,15,5,2,7,CEDE,FMAX,3,X,CEDEX,17,NA,0,0,NA,NA,noIP
6,615,15,5,2,8,NA,FMAY,3,YAM,YAM,13,NA,0,0,NA,NA,noIP
6,615,15,5,2,9,NA,FP,3,NA,NA,0,0,0,0,1,NA,noIP
6,615,15,5,2,10,POU,FPE,3,F,POUF,9,NA,0,0,NA,NA,noIP
7,701,1,1,1,1,"NAGE",ENESM,1,S,"NAGES",6,40,2.5,0,NA,NA,IP
7,701,1,1,1,2,NA,ENEMA,1,NEM,NEM,4,50,0,0,NA,NA,IP
7,701,1,1,1,3,TENU,EAK,1,E,TENUE,3,60,2.9,2,NA,NA,IP
7,701,1,1,1,4,CEDE,AKZ,1,Z,CEDEZ,13.5,60,0,3.5,NA,NA,IP
7,701,1,1,1,5,"NAGE",AKI,1,A,"NAGEA",6,80,0,0,NA,NA,IP
7,701,1,1,1,6,NA,KIA,1,NA,NA,0,NA,2.9,0,1,NA,IP
7,701,1,1,1,7,NA,KIAO,1,KOI,KOI,12,90,2.5,0,NA,NA,IP
7,701,1,1,1,8,NA,AA,1,NA,NA,0,NA,0,0,NA,NA,IP
7,701,1,1,1,9,MOUE,AAL,1,L,MOULE,2,80,2.5,4,NA,NA,IP
7,701,1,1,1,10,"NAGEE",AAS,1,S,"NAGEES",6,100,0,1,NA,NA,IP
7,701,1,1,2,1,POIL,OETUG,1,U,POILU,7,NA,0,0,NA,NA,noIP
7,701,1,1,2,2,NA,OETGN,1,TONG,TONG,5,NA,0,0,NA,NA,noIP
7,701,1,1,2,3,POIL,EI,1,E,POILE,7,NA,0,0,NA,NA,noIP
7,701,1,1,2,4,SORS,IF,1,I,SOIRS,5,NA,0,0,NA,NA,noIP
7,701,1,1,2,5,ORAL,FM,1,M,MORAL,6,NA,0,0,NA,NA,noIP
7,701,1,1,2,6,POILE,FE,1,E,POILEE,8,NA,0,0,NA,NA,noIP
7,701,1,1,2,7,NUES,FO,1,O,NOUES,5,NA,0,0,NA,NA,noIP
7,701,1,1,2,8,NA,FL,1,NA,NA,0,NA,0,0,NA,NA,noIP
7,701,1,1,2,9,TOND,FLU,1,U,TONDU,6,NA,0,0,NA,NA,noIP
7,701,1,1,2,10,TONDU,FLE,1,E,TONDUE,7,NA,0,0,NA,NA,noIP
7,702,2,1,1,1,NA,IAOUM,2,MOU,MOU,4,80,0,0,NA,NA,IP
7,702,2,1,1,2,CEDE,IAE,2,E,CEDEE,8,50,0,0,NA,NA,IP
7,702,2,1,1,3,"NAGES",IAA,2,A,"NAGEAS",4.1,60,2,2.9,NA,NA,IP
7,702,2,1,1,4,DINA,IAM,2,I,DINAI,3.5,60,3.5,2.5,NA,NA,IP
7,702,2,1,1,5,NA,AMO,2,MOA,MOA,4,70,0,0,NA,NA,IP
7,702,2,1,1,6,"NAGEAS",I,2,I,"NAGEAIS",5.1,70,0,2.9,NA,NA,IP
7,702,2,1,1,7,"NAGE",Z,2,Z,"NAGEZ",12.5,50,0,2.5,NA,NA,IP
7,702,2,1,1,8,MOU,E,2,E,MOUE,5,80,0,0,NA,NA,IP
7,702,2,1,1,9,NA,A,2,NA,NA,0,0,4,0,1,NA,IP
7,702,2,1,1,10,NA,AG,2,NA,NA,0,NA,0,0,1,NA,IP
7,702,2,1,2,1,NA,CNOTT,2,TON,TON,3,NA,0,0,NA,NA,noIP
7,702,2,1,2,2,POILU,CTE,2,E,POILUE,8,NA,0,0,NA,NA,noIP
7,702,2,1,2,3,SORS,CTF,2,T,SORTS,5,NA,0,0,NA,NA,noIP
7,702,2,1,2,4,NA,CFN,2,NA,NA,0,NA,0,0,1,NA,noIP
7,702,2,1,2,5,POILUE,CFNS,2,S,POILUES,9,NA,0,0,NA,NA,noIP
7,702,2,1,2,6,SORTS,CFNE,2,E,SORTES,6,NA,0,0,NA,NA,noIP
7,702,2,1,2,7,NA,CFNM,2,NA,NA,0,0,0,0,1,NA,noIP
7,702,2,1,2,8,TIN,CFNMT,2,T,TINT,4,NA,0,0,NA,NA,noIP
7,702,2,1,2,9,NA,CFNML,2,NA,NA,0,0,0,0,1,NA,noIP
7,702,2,1,2,10,NA,CFNMLM,2,NA,NA,0,NA,0,0,NA,NA,noIP
7,703,3,1,1,1,"NAGE",MEAUI,3,U,NUAGE,3.5,90,0,2.5,NA,NA,IP
7,703,3,1,1,2,POSA,MEAIT,3,I,POSAI,7,100,0,0,NA,NA,IP
7,703,3,1,1,3,POSAI,MEATU,3,T,POSAIT,8,100,0,0,NA,NA,IP
7,703,3,1,1,4,NA,MEAUN,3,EAU,EAU,3,100,2.5,0,NA,NA,IP
7,703,3,1,1,5,EAU,MNB,3,B,BEAU,6,100,0,0,NA,NA,IP
7,703,3,1,1,6,DINA,MNS,3,S,DINAS,6,100,0,0,NA,NA,IP
7,703,3,1,1,7,NA,MNE,3,NA,NA,0,0,0,0,1,NA,IP
7,703,3,1,1,8,NA,MNEW,3,NA,NA,0,0,0,0,1,NA,IP
7,703,3,1,1,9,"NAGE",MNEWE,3,E,"NAGEE",3.5,100,0,2.5,NA,NA,IP
7,703,3,1,1,10,NA,MNWEL,3,MEL,MEL,4,100,1,0,NA,NA,IP
7,703,3,1,2,1,ORAL,TREED,3,E,ORALE,5,NA,0,0,NA,NA,noIP
7,703,3,1,2,2,NA,TREDF,3,FER,FER,6,NA,0,0,NA,NA,noIP
7,703,3,1,2,3,NA,TDN,3,NA,NA,0,0,0,0,1,NA,noIP
7,703,3,1,2,4,TON,TDNJ,3,D,TOND,5,NA,0,0,NA,NA,noIP
7,703,3,1,2,5,ORALE,TNJM,3,M,MORALE,7,NA,0,0,NA,NA,noIP
7,703,3,1,2,6,SORTS,TNJP,3,P,SPORTS,8,NA,0,0,NA,NA,noIP
7,703,3,1,2,7,NA,TNJI,3,TIN,TIN,3,NA,0,0,NA,NA,noIP
7,703,3,1,2,8,TOND,JO,3,O,TONDO,6,NA,0,0,NA,NA,noIP
7,703,3,1,2,9,POILE,JR,3,R,POILER,8,NA,0,0,NA,NA,noIP
7,703,3,1,2,10,NA,JB,3,NA,NA,0,0,0,0,1,NA,noIP
7,704,4,2,1,1,"NAGE",LRIEK,1,R,"NAGER",6,50,6,0,NA,NA,IP
7,704,4,2,1,2,TENU,LIEKA,1,E,TENUE,3,80,0,2,NA,NA,IP
7,704,4,2,1,3,NA,LIKAP,1,PLIA,PLIA,6,60,3,0,NA,NA,IP
7,704,4,2,1,4,POSA,KI,1,I,POSAI,4,60,0,3,NA,NA,IP
7,704,4,2,1,5,NA,KO,1,NA,NA,0,NA,0,0,1,NA,IP
7,704,4,2,1,6,NA,KOF,1,NA,NA,0,NA,0,0,NA,NA,IP
7,704,4,2,1,7,NA,KOFC,1,NA,NA,0,NA,0,0,1,NA,IP
7,704,4,2,1,8,"NAGE",KOFCE,1,E,"NAGEE",6,70,0.6,0,NA,NA,IP
7,704,4,2,1,9,DINA,KOFCJ,1,O,DOINA,3.5,50,2,2.5,NA,NA,IP
7,704,4,2,1,10,PLIA,KFCJT,1,T,PLIAT,7,70,0,0,NA,NA,IP
7,704,4,2,2,1,POIL,ALSFS,1,S,POILS,7,NA,0,0,NA,NA,noIP
7,704,4,2,2,2,RIDEE,ALFSW,1,S,RIDEES,7,NA,0,0,NA,NA,noIP
7,704,4,2,2,3,NA,ALFWP,1,NA,NA,0,0,0,0,1,NA,noIP
7,704,4,2,2,4,SORTES,ALFWPI,1,I,SORTIES,7,NA,0,0,NA,NA,noIP
7,704,4,2,2,5,NA,ALFWPL,1,PAL,PAL,5,NA,0,0,NA,NA,noIP
7,704,4,2,2,6,IDEE,FWLV,1,V,VIDEE,9,NA,0,0,NA,NA,noIP
